File: Example/Sample2/ORR.txt
Potential applied (V);Time (s);WE(1).Current (A);Index;Current range
-0.899811;252.007;-0.00151245;1;1 mA
-0.898895;252.19;-0.00151062;7;1 mA
-0.89798;252.373;-0.0015094;13;1 mA
-0.897064;252.557;-0.00150818;19;1 mA
-0.896149;252.74;-0.00150543;25;1 mA
-0.895233;252.923;-0.00150208;31;1 mA
-0.894318;253.106;-0.00149902;37;1 mA
-0.893402;253.289;-0.00149902;43;1 mA
-0.892487;253.472;-0.00149628;49;1 mA
-0.891571;253.655;-0.00149597;55;1 mA
-0.890656;253.838;-0.00149261;61;1 mA
-0.88974;254.021;-0.00149475;67;1 mA
-0.888824;254.205;-0.001492;73;1 mA
-0.887909;254.388;-0.00148834;79;1 mA
-0.886993;254.571;-0.00148712;85;1 mA
-0.886078;254.754;-0.00148712;91;1 mA
-0.885162;254.937;-0.00148651;97;1 mA
-0.884247;255.12;-0.00148254;103;1 mA
-0.883331;255.303;-0.00148132;109;1 mA
-0.882416;255.486;-0.00147949;115;1 mA
-0.8815;255.669;-0.00148224;121;1 mA
-0.880585;255.853;-0.00148163;127;1 mA
-0.879669;256.036;-0.00148102;133;1 mA
-0.878754;256.219;-0.00147675;139;1 mA
-0.877838;256.402;-0.00147278;145;1 mA
-0.876923;256.585;-0.00147156;151;1 mA
-0.876007;256.768;-0.00147034;157;1 mA
-0.875092;256.951;-0.00147736;163;1 mA
-0.874176;257.134;-0.00147308;169;1 mA
-0.87326;257.317;-0.00147247;175;1 mA
-0.872345;257.501;-0.00146759;181;1 mA
-0.871429;257.684;-0.00147156;187;1 mA
-0.870514;257.867;-0.00146301;193;1 mA
-0.869598;258.05;-0.00146667;199;1 mA
-0.868683;258.233;-0.00146698;205;1 mA
-0.867767;258.416;-0.00146729;211;1 mA
-0.866852;258.599;-0.00146576;217;1 mA
-0.865936;258.782;-0.00146301;223;1 mA
-0.865021;258.965;-0.00145874;229;1 mA
-0.864105;259.148;-0.00145599;235;1 mA
-0.86319;259.332;-0.00145752;241;1 mA
-0.862274;259.515;-0.00145569;247;1 mA
-0.861359;259.698;-0.00145935;253;1 mA
-0.860443;259.881;-0.00145996;259;1 mA
-0.859528;260.064;-0.00145905;265;1 mA
-0.858612;260.247;-0.00145477;271;1 mA
-0.857697;260.43;-0.00145508;277;1 mA
-0.856781;260.613;-0.00145782;283;1 mA
-0.855865;260.796;-0.00145508;289;1 mA
-0.85495;260.98;-0.00144989;295;1 mA
-0.854034;261.163;-0.00144592;301;1 mA
-0.853119;261.346;-0.00144928;307;1 mA
-0.852203;261.529;-0.00145386;313;1 mA
-0.851288;261.712;-0.0014502;319;1 mA
-0.850372;261.895;-0.00145142;325;1 mA
-0.849457;262.078;-0.00144745;331;1 mA
-0.848541;262.261;-0.00144348;337;1 mA
-0.847626;262.444;-0.00144653;343;1 mA
-0.84671;262.628;-0.00144592;349;1 mA
-0.845795;262.811;-0.0014447;355;1 mA
-0.844879;262.994;-0.00144775;361;1 mA
-0.843964;263.177;-0.00144318;367;1 mA
-0.843048;263.36;-0.00144257;373;1 mA
-0.842133;263.543;-0.00144257;379;1 mA
-0.841217;263.726;-0.00144135;385;1 mA
-0.840302;263.909;-0.00144196;391;1 mA
-0.839386;264.092;-0.00144348;397;1 mA
-0.83847;264.276;-0.00143799;403;1 mA
-0.837555;264.459;-0.0014389;409;1 mA
-0.836639;264.642;-0.00143951;415;1 mA
-0.835724;264.825;-0.00143402;421;1 mA
-0.834808;265.008;-0.00143402;427;1 mA
-0.833893;265.191;-0.00142944;433;1 mA
-0.832977;265.374;-0.00143524;439;1 mA
-0.832062;265.557;-0.00143341;445;1 mA
-0.831146;265.74;-0.00142853;451;1 mA
-0.830231;265.923;-0.00143219;457;1 mA
-0.829315;266.107;-0.00143463;463;1 mA
-0.8284;266.29;-0.00143524;469;1 mA
-0.827484;266.473;-0.00142639;475;1 mA
-0.826569;266.656;-0.00142517;481;1 mA
-0.825653;266.839;-0.00142303;487;1 mA
-0.824738;267.022;-0.00142334;493;1 mA
-0.823822;267.205;-0.00142212;499;1 mA
-0.822906;267.388;-0.00141968;505;1 mA
-0.821991;267.571;-0.00142334;511;1 mA
-0.821075;267.755;-0.00141968;517;1 mA
-0.82016;267.938;-0.00141693;523;1 mA
-0.819244;268.121;-0.00141327;529;1 mA
-0.818329;268.304;-0.00141113;535;1 mA
-0.817413;268.487;-0.00141174;541;1 mA
-0.816498;268.67;-0.00140839;547;1 mA
-0.815582;268.853;-0.00140869;553;1 mA
-0.814667;269.036;-0.00140869;559;1 mA
-0.813751;269.219;-0.00140381;565;1 mA
-0.812836;269.403;-0.00140198;571;1 mA
-0.81192;269.586;-0.00139801;577;1 mA
-0.811005;269.769;-0.00139984;583;1 mA
-0.810089;269.952;-0.00140076;589;1 mA
-0.809174;270.135;-0.00140076;595;1 mA
-0.808258;270.318;-0.00139679;601;1 mA
-0.807343;270.501;-0.0013974;607;1 mA
-0.806427;270.684;-0.00139679;613;1 mA
-0.805511;270.867;-0.00139282;619;1 mA
-0.804596;271.051;-0.00139923;625;1 mA
-0.80368;271.234;-0.00138885;631;1 mA
-0.802765;271.417;-0.00139587;637;1 mA
-0.801849;271.6;-0.00139465;643;1 mA
-0.800934;271.783;-0.00139923;649;1 mA
-0.800018;271.966;-0.00139587;655;1 mA
-0.799103;272.149;-0.00139587;661;1 mA
-0.798187;272.332;-0.00139862;667;1 mA
-0.797272;272.515;-0.00139648;673;1 mA
-0.796356;272.698;-0.00139648;679;1 mA
-0.795441;272.882;-0.00139496;685;1 mA
-0.794525;273.065;-0.00139893;691;1 mA
-0.79361;273.248;-0.00140839;697;1 mA
-0.792694;273.431;-0.00140167;703;1 mA
-0.791779;273.614;-0.00140228;709;1 mA
-0.790863;273.797;-0.00140167;715;1 mA
-0.789948;273.98;-0.00140167;721;1 mA
-0.789032;274.163;-0.0014032;727;1 mA
-0.788116;274.346;-0.00140381;733;1 mA
-0.787201;274.53;-0.001409;739;1 mA
-0.786285;274.713;-0.00140869;745;1 mA
-0.78537;274.896;-0.00140656;751;1 mA
-0.784454;275.079;-0.00141113;757;1 mA
-0.783539;275.262;-0.00141754;763;1 mA
-0.782623;275.445;-0.00141937;769;1 mA
-0.781708;275.628;-0.00141998;775;1 mA
-0.780792;275.811;-0.00142273;781;1 mA
-0.779877;275.994;-0.00142456;787;1 mA
-0.778961;276.178;-0.00142456;793;1 mA
-0.778046;276.361;-0.00142761;799;1 mA
-0.77713;276.544;-0.001427;805;1 mA
-0.776215;276.727;-0.00143158;811;1 mA
-0.775299;276.91;-0.00143097;817;1 mA
-0.774384;277.093;-0.00142456;823;1 mA
-0.773468;277.276;-0.00142944;829;1 mA
-0.772552;277.459;-0.00143036;835;1 mA
-0.771637;277.642;-0.00143188;841;1 mA
-0.770721;277.825;-0.00143127;847;1 mA
-0.769806;278.009;-0.0014328;853;1 mA
-0.76889;278.192;-0.00143219;859;1 mA
-0.767975;278.375;-0.00143433;865;1 mA
-0.767059;278.558;-0.00143402;871;1 mA
-0.766144;278.741;-0.00143402;877;1 mA
-0.765228;278.924;-0.00143646;883;1 mA
-0.764313;279.107;-0.0014389;889;1 mA
-0.763397;279.29;-0.00143738;895;1 mA
-0.762482;279.473;-0.00143982;901;1 mA
-0.761566;279.657;-0.00143982;907;1 mA
-0.760651;279.84;-0.00143494;913;1 mA
-0.759735;280.023;-0.00143829;919;1 mA
-0.75882;280.206;-0.00144104;925;1 mA
-0.757904;280.389;-0.00143921;931;1 mA
-0.756989;280.572;-0.00144287;937;1 mA
-0.756073;280.755;-0.00144104;943;1 mA
-0.755157;280.938;-0.00144409;949;1 mA
-0.754242;281.121;-0.00144379;955;1 mA
-0.753326;281.305;-0.0014444;961;1 mA
-0.752411;281.488;-0.00144196;967;1 mA
-0.751495;281.671;-0.00144043;973;1 mA
-0.75058;281.854;-0.00144379;979;1 mA
-0.749664;282.037;-0.00144806;985;1 mA
-0.748749;282.22;-0.00144867;991;1 mA
-0.747833;282.403;-0.00144989;997;1 mA
-0.746918;282.586;-0.00145203;1003;1 mA
-0.746002;282.769;-0.00145599;1009;1 mA
-0.745087;282.953;-0.00145142;1015;1 mA
-0.744171;283.136;-0.00145325;1021;1 mA
-0.743256;283.319;-0.00145691;1027;1 mA
-0.74234;283.502;-0.00146027;1033;1 mA
-0.741425;283.685;-0.00146393;1039;1 mA
-0.740509;283.868;-0.00146454;1045;1 mA
-0.739594;284.051;-0.00146545;1051;1 mA
-0.738678;284.234;-0.0014682;1057;1 mA
-0.737762;284.417;-0.00146729;1063;1 mA
-0.736847;284.6;-0.00147003;1069;1 mA
-0.735931;284.784;-0.00146973;1075;1 mA
-0.735016;284.967;-0.00147064;1081;1 mA
-0.7341;285.15;-0.0014801;1087;1 mA
-0.733185;285.333;-0.00147888;1093;1 mA
-0.732269;285.516;-0.0014801;1099;1 mA
-0.731354;285.699;-0.00148041;1105;1 mA
-0.730438;285.882;-0.00147766;1111;1 mA
-0.729523;286.065;-0.00148102;1117;1 mA
-0.728607;286.248;-0.00148315;1123;1 mA
-0.727692;286.432;-0.00148407;1129;1 mA
-0.726776;286.615;-0.00148743;1135;1 mA
-0.725861;286.798;-0.00149109;1141;1 mA
-0.724945;286.981;-0.00148834;1147;1 mA
-0.72403;287.164;-0.00148865;1153;1 mA
-0.723114;287.347;-0.00148804;1159;1 mA
-0.722198;287.53;-0.00149017;1165;1 mA
-0.721283;287.713;-0.00149231;1171;1 mA
-0.720367;287.896;-0.00149231;1177;1 mA
-0.719452;288.08;-0.00149353;1183;1 mA
-0.718536;288.263;-0.00149719;1189;1 mA
-0.717621;288.446;-0.00149506;1195;1 mA
-0.716705;288.629;-0.00149536;1201;1 mA
-0.71579;288.812;-0.00149445;1207;1 mA
-0.714874;288.995;-0.00149628;1213;1 mA
-0.713959;289.178;-0.00149689;1219;1 mA
-0.713043;289.361;-0.00149719;1225;1 mA
-0.712128;289.544;-0.00149902;1231;1 mA
-0.711212;289.728;-0.00149658;1237;1 mA
-0.710297;289.911;-0.00150208;1243;1 mA
-0.709381;290.094;-0.00149719;1249;1 mA
-0.708466;290.277;-0.00149719;1255;1 mA
-0.70755;290.46;-0.00149719;1261;1 mA
-0.706635;290.643;-0.00149506;1267;1 mA
-0.705719;290.826;-0.0014978;1273;1 mA
-0.704803;291.009;-0.00149872;1279;1 mA
-0.703888;291.192;-0.00150116;1285;1 mA
-0.702972;291.375;-0.00150177;1291;1 mA
-0.702057;291.559;-0.00149872;1297;1 mA
-0.701141;291.742;-0.00149658;1303;1 mA
-0.700226;291.925;-0.0014975;1309;1 mA
-0.69931;292.108;-0.00149658;1315;1 mA
-0.698395;292.291;-0.00149841;1321;1 mA
-0.697479;292.474;-0.00149994;1327;1 mA
-0.696564;292.657;-0.00149994;1333;1 mA
-0.695648;292.84;-0.00150177;1339;1 mA
-0.694733;293.023;-0.00149719;1345;1 mA
-0.693817;293.207;-0.00149597;1351;1 mA
-0.692902;293.39;-0.00149811;1357;1 mA
-0.691986;293.573;-0.00150116;1363;1 mA
-0.691071;293.756;-0.00149933;1369;1 mA
-0.690155;293.939;-0.00149658;1375;1 mA
-0.68924;294.122;-0.00149658;1381;1 mA
-0.688324;294.305;-0.00149689;1387;1 mA
-0.687408;294.488;-0.00149292;1393;1 mA
-0.686493;294.671;-0.00149689;1399;1 mA
-0.685577;294.855;-0.00149658;1405;1 mA
-0.684662;295.038;-0.00149963;1411;1 mA
-0.683746;295.221;-0.00149597;1417;1 mA
-0.682831;295.404;-0.00149719;1423;1 mA
-0.681915;295.587;-0.00149658;1429;1 mA
-0.681;295.77;-0.00150299;1435;1 mA
-0.680084;295.953;-0.00149506;1441;1 mA
-0.679169;296.136;-0.00149994;1447;1 mA
-0.678253;296.319;-0.00149475;1453;1 mA
-0.677338;296.503;-0.00149994;1459;1 mA
-0.676422;296.686;-0.00149902;1465;1 mA
-0.675507;296.869;-0.0014975;1471;1 mA
-0.674591;297.052;-0.00149933;1477;1 mA
-0.673676;297.235;-0.0014975;1483;1 mA
-0.67276;297.418;-0.00149689;1489;1 mA
-0.671844;297.601;-0.00149628;1495;1 mA
-0.670929;297.784;-0.00149567;1501;1 mA
-0.670013;297.967;-0.00148956;1507;1 mA
-0.669098;298.15;-0.00149261;1513;1 mA
-0.668182;298.334;-0.00149445;1519;1 mA
-0.667267;298.517;-0.00149963;1525;1 mA
-0.666351;298.7;-0.00149536;1531;1 mA
-0.665436;298.883;-0.00149628;1537;1 mA
-0.66452;299.066;-0.00149841;1543;1 mA
-0.663605;299.249;-0.00149414;1549;1 mA
-0.662689;299.432;-0.00149658;1555;1 mA
-0.661774;299.615;-0.00150116;1561;1 mA
-0.660858;299.798;-0.00149902;1567;1 mA
-0.659943;299.982;-0.00149902;1573;1 mA
-0.659027;300.165;-0.00150055;1579;1 mA
-0.658112;300.348;-0.0014975;1585;1 mA
-0.657196;300.531;-0.00150024;1591;1 mA
-0.656281;300.714;-0.00149841;1597;1 mA
-0.655365;300.897;-0.00149689;1603;1 mA
-0.654449;301.08;-0.0014978;1609;1 mA
-0.653534;301.263;-0.00149872;1615;1 mA
-0.652618;301.446;-0.00150269;1621;1 mA
-0.651703;301.63;-0.00150238;1627;1 mA
-0.650787;301.813;-0.00150055;1633;1 mA
-0.649872;301.996;-0.00150116;1639;1 mA
-0.648956;302.179;-0.00149872;1645;1 mA
-0.648041;302.362;-0.00149689;1651;1 mA
-0.647125;302.545;-0.00149933;1657;1 mA
-0.64621;302.728;-0.00149933;1663;1 mA
-0.645294;302.911;-0.00149963;1669;1 mA
-0.644379;303.094;-0.00150085;1675;1 mA
-0.643463;303.278;-0.00149902;1681;1 mA
-0.642548;303.461;-0.00150085;1687;1 mA
-0.641632;303.644;-0.00150085;1693;1 mA
-0.640717;303.827;-0.00149902;1699;1 mA
-0.639801;304.01;-0.00149994;1705;1 mA
-0.638885;304.193;-0.00150208;1711;1 mA
-0.63797;304.376;-0.00149597;1717;1 mA
-0.637054;304.559;-0.00149719;1723;1 mA
-0.636139;304.742;-0.0015036;1729;1 mA
-0.635223;304.925;-0.00150024;1735;1 mA
-0.634308;305.109;-0.00149994;1741;1 mA
-0.633392;305.292;-0.00149658;1747;1 mA
-0.632477;305.475;-0.00149719;1753;1 mA
-0.631561;305.658;-0.00149902;1759;1 mA
-0.630646;305.841;-0.00149933;1765;1 mA
-0.62973;306.024;-0.00149872;1771;1 mA
-0.628815;306.207;-0.00150085;1777;1 mA
-0.627899;306.39;-0.00149597;1783;1 mA
-0.626984;306.573;-0.0015033;1789;1 mA
-0.626068;306.757;-0.00149658;1795;1 mA
-0.625153;306.94;-0.00149445;1801;1 mA
-0.624237;307.123;-0.001492;1807;1 mA
-0.623322;307.306;-0.00149506;1813;1 mA
-0.622406;307.489;-0.00149323;1819;1 mA
-0.62149;307.672;-0.00150024;1825;1 mA
-0.620575;307.855;-0.00148926;1831;1 mA
-0.619659;308.038;-0.00149414;1837;1 mA
-0.618744;308.221;-0.00149384;1843;1 mA
-0.617828;308.405;-0.00149536;1849;1 mA
-0.616913;308.588;-0.00149048;1855;1 mA
-0.615997;308.771;-0.00149384;1861;1 mA
-0.615082;308.954;-0.00149689;1867;1 mA
-0.614166;309.137;-0.00149323;1873;1 mA
-0.613251;309.32;-0.00149536;1879;1 mA
-0.612335;309.503;-0.00149048;1885;1 mA
-0.61142;309.686;-0.00149384;1891;1 mA
-0.610504;309.869;-0.00149048;1897;1 mA
-0.609589;310.053;-0.00149628;1903;1 mA
-0.608673;310.236;-0.00149841;1909;1 mA
-0.607758;310.419;-0.00149597;1915;1 mA
-0.606842;310.602;-0.00149658;1921;1 mA
-0.605927;310.785;-0.0014978;1927;1 mA
-0.605011;310.968;-0.001492;1933;1 mA
-0.604095;311.151;-0.00149323;1939;1 mA
-0.60318;311.334;-0.00148743;1945;1 mA
-0.602264;311.517;-0.00149475;1951;1 mA
-0.601349;311.7;-0.00149994;1957;1 mA
-0.600433;311.884;-0.00150787;1963;1 mA
-0.599518;312.067;-0.00149872;1969;1 mA
-0.598602;312.25;-0.00149139;1975;1 mA
-0.597687;312.433;-0.00149353;1981;1 mA
-0.596771;312.616;-0.00149719;1987;1 mA
-0.595856;312.799;-0.00149689;1993;1 mA
-0.59494;312.982;-0.00149658;1999;1 mA
-0.594025;313.165;-0.00149536;2005;1 mA
-0.593109;313.348;-0.00149445;2011;1 mA
-0.592194;313.532;-0.00149628;2017;1 mA
-0.591278;313.715;-0.001492;2023;1 mA
-0.590363;313.898;-0.00148865;2029;1 mA
-0.589447;314.081;-0.00149231;2035;1 mA
-0.588531;314.264;-0.00148865;2041;1 mA
-0.587616;314.447;-0.00149872;2047;1 mA
-0.5867;314.63;-0.00149353;2053;1 mA
-0.585785;314.813;-0.00149323;2059;1 mA
-0.584869;314.996;-0.00149628;2065;1 mA
-0.583954;315.18;-0.00149231;2071;1 mA
-0.583038;315.363;-0.00149506;2077;1 mA
-0.582123;315.546;-0.00149841;2083;1 mA
-0.581207;315.729;-0.00149048;2089;1 mA
-0.580292;315.912;-0.00149353;2095;1 mA
-0.579376;316.095;-0.00149597;2101;1 mA
-0.578461;316.278;-0.00149506;2107;1 mA
-0.577545;316.461;-0.00149109;2113;1 mA
-0.57663;316.644;-0.001492;2119;1 mA
-0.575714;316.828;-0.00149048;2125;1 mA
-0.574799;317.011;-0.00149109;2131;1 mA
-0.573883;317.194;-0.00149017;2137;1 mA
-0.572968;317.377;-0.00148926;2143;1 mA
-0.572052;317.56;-0.00149811;2149;1 mA
-0.571136;317.743;-0.0014975;2155;1 mA
-0.570221;317.926;-0.00149902;2161;1 mA
-0.569305;318.109;-0.00149261;2167;1 mA
-0.56839;318.292;-0.00149658;2173;1 mA
-0.567474;318.475;-0.00149292;2179;1 mA
-0.566559;318.659;-0.00149292;2185;1 mA
-0.565643;318.842;-0.00149261;2191;1 mA
-0.564728;319.025;-0.00149536;2197;1 mA
-0.563812;319.208;-0.00149292;2203;1 mA
-0.562897;319.391;-0.00149719;2209;1 mA
-0.561981;319.574;-0.00149597;2215;1 mA
-0.561066;319.757;-0.0014975;2221;1 mA
-0.56015;319.94;-0.00149536;2227;1 mA
-0.559235;320.123;-0.00149261;2233;1 mA
-0.558319;320.307;-0.00149628;2239;1 mA
-0.557404;320.49;-0.00149109;2245;1 mA
-0.556488;320.673;-0.00149445;2251;1 mA
-0.555573;320.856;-0.00149445;2257;1 mA
-0.554657;321.039;-0.00149506;2263;1 mA
-0.553741;321.222;-0.00149567;2269;1 mA
-0.552826;321.405;-0.00149689;2275;1 mA
-0.55191;321.588;-0.00150055;2281;1 mA
-0.550995;321.771;-0.00149475;2287;1 mA
-0.550079;321.955;-0.00149017;2293;1 mA
-0.549164;322.138;-0.00149811;2299;1 mA
-0.548248;322.321;-0.00149719;2305;1 mA
-0.547333;322.504;-0.00149567;2311;1 mA
-0.546417;322.687;-0.00149536;2317;1 mA
-0.545502;322.87;-0.00149567;2323;1 mA
-0.544586;323.053;-0.00149475;2329;1 mA
-0.543671;323.236;-0.00149139;2335;1 mA
-0.542755;323.419;-0.00149597;2341;1 mA
-0.54184;323.602;-0.0014978;2347;1 mA
-0.540924;323.786;-0.00150055;2353;1 mA
-0.540009;323.969;-0.00149872;2359;1 mA
-0.539093;324.152;-0.00149048;2365;1 mA
-0.538177;324.335;-0.00149475;2371;1 mA
-0.537262;324.518;-0.00149017;2377;1 mA
-0.536346;324.701;-0.00149597;2383;1 mA
-0.535431;324.884;-0.00149384;2389;1 mA
-0.534515;325.067;-0.00149628;2395;1 mA
-0.5336;325.25;-0.00149475;2401;1 mA
-0.532684;325.434;-0.00149872;2407;1 mA
-0.531769;325.617;-0.00149658;2413;1 mA
-0.530853;325.8;-0.00149414;2419;1 mA
-0.529938;325.983;-0.00148895;2425;1 mA
-0.529022;326.166;-0.00149658;2431;1 mA
-0.528107;326.349;-0.00149384;2437;1 mA
-0.527191;326.532;-0.00149933;2443;1 mA
-0.526276;326.715;-0.00149689;2449;1 mA
-0.52536;326.898;-0.00149628;2455;1 mA
-0.524445;327.082;-0.00149872;2461;1 mA
-0.523529;327.265;-0.00149841;2467;1 mA
-0.522614;327.448;-0.00149261;2473;1 mA
-0.521698;327.631;-0.00149292;2479;1 mA
-0.520782;327.814;-0.00150024;2485;1 mA
-0.519867;327.997;-0.00149841;2491;1 mA
-0.518951;328.18;-0.00149841;2497;1 mA
-0.518036;328.363;-0.00149841;2503;1 mA
-0.51712;328.546;-0.0014978;2509;1 mA
-0.516205;328.73;-0.00149902;2515;1 mA
-0.515289;328.913;-0.0014978;2521;1 mA
-0.514374;329.096;-0.00149567;2527;1 mA
-0.513458;329.279;-0.00149597;2533;1 mA
-0.512543;329.462;-0.00149628;2539;1 mA
-0.511627;329.645;-0.00149475;2545;1 mA
-0.510712;329.828;-0.00150391;2551;1 mA
-0.509796;330.011;-0.00149384;2557;1 mA
-0.508881;330.194;-0.00149658;2563;1 mA
-0.507965;330.377;-0.0014975;2569;1 mA
-0.50705;330.561;-0.00149719;2575;1 mA
-0.506134;330.744;-0.00149719;2581;1 mA
-0.505219;330.927;-0.00149994;2587;1 mA
-0.504303;331.11;-0.00149658;2593;1 mA
-0.503387;331.293;-0.00149872;2599;1 mA
-0.502472;331.476;-0.00149963;2605;1 mA
-0.501556;331.659;-0.00149963;2611;1 mA
-0.500641;331.842;-0.00149506;2617;1 mA
-0.499725;332.025;-0.00149689;2623;1 mA
-0.49881;332.209;-0.00149597;2629;1 mA
-0.497894;332.392;-0.00150177;2635;1 mA
-0.496979;332.575;-0.00150085;2641;1 mA
-0.496063;332.758;-0.00150116;2647;1 mA
-0.495148;332.941;-0.00149902;2653;1 mA
-0.494232;333.124;-0.00149719;2659;1 mA
-0.493317;333.307;-0.00149902;2665;1 mA
-0.492401;333.49;-0.00149689;2671;1 mA
-0.491486;333.673;-0.00149811;2677;1 mA
-0.49057;333.857;-0.00150024;2683;1 mA
-0.489655;334.04;-0.00149689;2689;1 mA
-0.488739;334.223;-0.00149811;2695;1 mA
-0.487823;334.406;-0.0014978;2701;1 mA
-0.486908;334.589;-0.00149963;2707;1 mA
-0.485992;334.772;-0.0014975;2713;1 mA
-0.485077;334.955;-0.0014978;2719;1 mA
-0.484161;335.138;-0.00149658;2725;1 mA
-0.483246;335.321;-0.00149994;2731;1 mA
-0.48233;335.505;-0.0014978;2737;1 mA
-0.481415;335.688;-0.00150085;2743;1 mA
-0.480499;335.871;-0.00150269;2749;1 mA
-0.479584;336.054;-0.00149902;2755;1 mA
-0.478668;336.237;-0.00149933;2761;1 mA
-0.477753;336.42;-0.00149841;2767;1 mA
-0.476837;336.603;-0.00150085;2773;1 mA
-0.475922;336.786;-0.00149902;2779;1 mA
-0.475006;336.969;-0.00149658;2785;1 mA
-0.474091;337.152;-0.00149902;2791;1 mA
-0.473175;337.336;-0.00150238;2797;1 mA
-0.47226;337.519;-0.00150055;2803;1 mA
-0.471344;337.702;-0.0014975;2809;1 mA
-0.470428;337.885;-0.0014975;2815;1 mA
-0.469513;338.068;-0.00149658;2821;1 mA
-0.468597;338.251;-0.00149963;2827;1 mA
-0.467682;338.434;-0.00150085;2833;1 mA
-0.466766;338.617;-0.00150299;2839;1 mA
-0.465851;338.8;-0.0014978;2845;1 mA
-0.464935;338.984;-0.00149628;2851;1 mA
-0.46402;339.167;-0.00149597;2857;1 mA
-0.463104;339.35;-0.00149872;2863;1 mA
-0.462189;339.533;-0.00149872;2869;1 mA
-0.461273;339.716;-0.00149933;2875;1 mA
-0.460358;339.899;-0.00150024;2881;1 mA
-0.459442;340.082;-0.00149994;2887;1 mA
-0.458527;340.265;-0.00150391;2893;1 mA
-0.457611;340.448;-0.00149841;2899;1 mA
-0.456696;340.632;-0.00149567;2905;1 mA
-0.45578;340.815;-0.0014975;2911;1 mA
-0.454865;340.998;-0.00150055;2917;1 mA
-0.453949;341.181;-0.00149994;2923;1 mA
-0.453033;341.364;-0.00149933;2929;1 mA
-0.452118;341.547;-0.00150024;2935;1 mA
-0.451202;341.73;-0.00150146;2941;1 mA
-0.450287;341.913;-0.00150269;2947;1 mA
-0.449371;342.096;-0.00149811;2953;1 mA
-0.448456;342.28;-0.00149963;2959;1 mA
-0.44754;342.463;-0.00149902;2965;1 mA
-0.446625;342.646;-0.00150269;2971;1 mA
-0.445709;342.829;-0.00149872;2977;1 mA
-0.444794;343.012;-0.00150299;2983;1 mA
-0.443878;343.195;-0.00150024;2989;1 mA
-0.442963;343.378;-0.00150299;2995;1 mA
-0.442047;343.561;-0.00150024;3001;1 mA
-0.441132;343.744;-0.00149567;3007;1 mA
-0.440216;343.927;-0.00149902;3013;1 mA
-0.439301;344.111;-0.00149658;3019;1 mA
-0.438385;344.294;-0.00149902;3025;1 mA
-0.437469;344.477;-0.00149994;3031;1 mA
-0.436554;344.66;-0.00150299;3037;1 mA
-0.435638;344.843;-0.00149963;3043;1 mA
-0.434723;345.026;-0.00149567;3049;1 mA
-0.433807;345.209;-0.00149414;3055;1 mA
-0.432892;345.392;-0.00149231;3061;1 mA
-0.431976;345.575;-0.00149567;3067;1 mA
-0.431061;345.759;-0.00149658;3073;1 mA
-0.430145;345.942;-0.00150146;3079;1 mA
-0.42923;346.125;-0.00150238;3085;1 mA
-0.428314;346.308;-0.00150238;3091;1 mA
-0.427399;346.491;-0.00149353;3097;1 mA
-0.426483;346.674;-0.00149872;3103;1 mA
-0.425568;346.857;-0.00149567;3109;1 mA
-0.424652;347.04;-0.00149506;3115;1 mA
-0.423737;347.223;-0.00149841;3121;1 mA
-0.422821;347.407;-0.00149841;3127;1 mA
-0.421906;347.59;-0.00149811;3133;1 mA
-0.42099;347.773;-0.00149933;3139;1 mA
-0.420074;347.956;-0.00149597;3145;1 mA
-0.419159;348.139;-0.00149414;3151;1 mA
-0.418243;348.322;-0.00149689;3157;1 mA
-0.417328;348.505;-0.00150055;3163;1 mA
-0.416412;348.688;-0.00149689;3169;1 mA
-0.415497;348.871;-0.00149719;3175;1 mA
-0.414581;349.055;-0.00149902;3181;1 mA
-0.413666;349.238;-0.00149963;3187;1 mA
-0.41275;349.421;-0.00149994;3193;1 mA
-0.411835;349.604;-0.00149841;3199;1 mA
-0.410919;349.787;-0.00149719;3205;1 mA
-0.410004;349.97;-0.00149414;3211;1 mA
-0.409088;350.153;-0.00149719;3217;1 mA
-0.408173;350.336;-0.00149872;3223;1 mA
-0.407257;350.519;-0.00149872;3229;1 mA
-0.406342;350.702;-0.00150116;3235;1 mA
-0.405426;350.886;-0.00149902;3241;1 mA
-0.40451;351.069;-0.00149475;3247;1 mA
-0.403595;351.252;-0.00149536;3253;1 mA
-0.402679;351.435;-0.00149719;3259;1 mA
-0.401764;351.618;-0.0014975;3265;1 mA
-0.400848;351.801;-0.0014978;3271;1 mA
-0.399933;351.984;-0.00149994;3277;1 mA
-0.399017;352.167;-0.00149902;3283;1 mA
-0.398102;352.35;-0.00149902;3289;1 mA
-0.397186;352.534;-0.00149597;3295;1 mA
-0.396271;352.717;-0.00149445;3301;1 mA
-0.395355;352.9;-0.00149475;3307;1 mA
-0.39444;353.083;-0.00149811;3313;1 mA
-0.393524;353.266;-0.00150177;3319;1 mA
-0.392609;353.449;-0.00149963;3325;1 mA
-0.391693;353.632;-0.00149994;3331;1 mA
-0.390778;353.815;-0.00149963;3337;1 mA
-0.389862;353.998;-0.00149414;3343;1 mA
-0.388947;354.182;-0.00149658;3349;1 mA
-0.388031;354.365;-0.00149567;3355;1 mA
-0.387115;354.548;-0.00149689;3361;1 mA
-0.3862;354.731;-0.00149689;3367;1 mA
-0.385284;354.914;-0.00149506;3373;1 mA
-0.384369;355.097;-0.0014978;3379;1 mA
-0.383453;355.28;-0.00149506;3385;1 mA
-0.382538;355.463;-0.00149475;3391;1 mA
-0.381622;355.646;-0.00149506;3397;1 mA
-0.380707;355.83;-0.00149567;3403;1 mA
-0.379791;356.013;-0.00149506;3409;1 mA
-0.378876;356.196;-0.00149597;3415;1 mA
-0.37796;356.379;-0.00150085;3421;1 mA
-0.377045;356.562;-0.00149872;3427;1 mA
-0.376129;356.745;-0.00149567;3433;1 mA
-0.375214;356.928;-0.00149139;3439;1 mA
-0.374298;357.111;-0.001492;3445;1 mA
-0.373383;357.294;-0.00149445;3451;1 mA
-0.372467;357.477;-0.00149628;3457;1 mA
-0.371552;357.661;-0.00149689;3463;1 mA
-0.370636;357.844;-0.00150482;3469;1 mA
-0.36972;358.027;-0.00149628;3475;1 mA
-0.368805;358.21;-0.00149719;3481;1 mA
-0.367889;358.393;-0.00149231;3487;1 mA
-0.366974;358.576;-0.00148834;3493;1 mA
-0.366058;358.759;-0.0014917;3499;1 mA
-0.365143;358.942;-0.00149872;3505;1 mA
-0.364227;359.125;-0.00149628;3511;1 mA
-0.363312;359.309;-0.00149475;3517;1 mA
-0.362396;359.492;-0.00149719;3523;1 mA
-0.361481;359.675;-0.00149567;3529;1 mA
-0.360565;359.858;-0.00149231;3535;1 mA
-0.35965;360.041;-0.00148804;3541;1 mA
-0.358734;360.224;-0.00149261;3547;1 mA
-0.357819;360.407;-0.00148987;3553;1 mA
-0.356903;360.59;-0.00149261;3559;1 mA
-0.355988;360.773;-0.00149872;3565;1 mA
-0.355072;360.957;-0.0014975;3571;1 mA
-0.354156;361.14;-0.00149353;3577;1 mA
-0.353241;361.323;-0.00149719;3583;1 mA
-0.352325;361.506;-0.00149323;3589;1 mA
-0.35141;361.689;-0.00148804;3595;1 mA
-0.350494;361.872;-0.00148956;3601;1 mA
-0.349579;362.055;-0.00149109;3607;1 mA
-0.348663;362.238;-0.00149841;3613;1 mA
-0.347748;362.421;-0.00149323;3619;1 mA
-0.346832;362.605;-0.00149139;3625;1 mA
-0.345917;362.788;-0.00148773;3631;1 mA
-0.345001;362.971;-0.00148926;3637;1 mA
-0.344086;363.154;-0.00148743;3643;1 mA
-0.34317;363.337;-0.00149017;3649;1 mA
-0.342255;363.52;-0.00149109;3655;1 mA
-0.341339;363.703;-0.00149384;3661;1 mA
-0.340424;363.886;-0.00149445;3667;1 mA
-0.339508;364.069;-0.00149292;3673;1 mA
-0.338593;364.252;-0.00149445;3679;1 mA
-0.337677;364.436;-0.00148865;3685;1 mA
-0.336761;364.619;-0.00148712;3691;1 mA
-0.335846;364.802;-0.00148621;3697;1 mA
-0.33493;364.985;-0.00148743;3703;1 mA
-0.334015;365.168;-0.0014917;3709;1 mA
-0.333099;365.351;-0.00149475;3715;1 mA
-0.332184;365.534;-0.00149384;3721;1 mA
-0.331268;365.717;-0.00149048;3727;1 mA
-0.330353;365.9;-0.00148712;3733;1 mA
-0.329437;366.084;-0.00148773;3739;1 mA
-0.328522;366.267;-0.00149048;3745;1 mA
-0.327606;366.45;-0.00149139;3751;1 mA
-0.326691;366.633;-0.00148956;3757;1 mA
-0.325775;366.816;-0.00148895;3763;1 mA
-0.32486;366.999;-0.00149445;3769;1 mA
-0.323944;367.182;-0.00149078;3775;1 mA
-0.323029;367.365;-0.00148895;3781;1 mA
-0.322113;367.548;-0.00148529;3787;1 mA
-0.321198;367.732;-0.00148895;3793;1 mA
-0.320282;367.915;-0.00149048;3799;1 mA
-0.319366;368.098;-0.00148987;3805;1 mA
-0.318451;368.281;-0.00149048;3811;1 mA
-0.317535;368.464;-0.00148834;3817;1 mA
-0.31662;368.647;-0.00148743;3823;1 mA
-0.315704;368.83;-0.00148651;3829;1 mA
-0.314789;369.013;-0.00148468;3835;1 mA
-0.313873;369.196;-0.00148773;3841;1 mA
-0.312958;369.379;-0.0014856;3847;1 mA
-0.312042;369.563;-0.0014856;3853;1 mA
-0.311127;369.746;-0.00149048;3859;1 mA
-0.310211;369.929;-0.00148712;3865;1 mA
-0.309296;370.112;-0.0014856;3871;1 mA
-0.30838;370.295;-0.00148529;3877;1 mA
-0.307465;370.478;-0.00148285;3883;1 mA
-0.306549;370.661;-0.00148987;3889;1 mA
-0.305634;370.844;-0.00148956;3895;1 mA
-0.304718;371.027;-0.00148834;3901;1 mA
-0.303802;371.211;-0.0014859;3907;1 mA
-0.302887;371.394;-0.00148499;3913;1 mA
-0.301971;371.577;-0.00148254;3919;1 mA
-0.301056;371.76;-0.00148224;3925;1 mA
-0.30014;371.943;-0.0014856;3931;1 mA
-0.299225;372.126;-0.00148102;3937;1 mA
-0.298309;372.309;-0.00148376;3943;1 mA
-0.297394;372.492;-0.001484375;3949;1 mA
-0.296478;372.675;-0.00148407;3955;1 mA
-0.295563;372.859;-0.00148743;3961;1 mA
-0.294647;373.042;-0.00148285;3967;1 mA
-0.293732;373.225;-0.00148407;3973;1 mA
-0.292816;373.408;-0.00148102;3979;1 mA
-0.291901;373.591;-0.00148254;3985;1 mA
-0.290985;373.774;-0.00148407;3991;1 mA
-0.29007;373.957;-0.00148651;3997;1 mA
-0.289154;374.14;-0.00148804;4003;1 mA
-0.288239;374.323;-0.00148712;4009;1 mA
-0.287323;374.507;-0.00148163;4015;1 mA
-0.286407;374.69;-0.00148102;4021;1 mA
-0.285492;374.873;-0.00147675;4027;1 mA
-0.284576;375.056;-0.00147614;4033;1 mA
-0.283661;375.239;-0.00148163;4039;1 mA
-0.282745;375.422;-0.00148132;4045;1 mA
-0.28183;375.605;-0.00148193;4051;1 mA
-0.280914;375.788;-0.00148407;4057;1 mA
-0.279999;375.971;-0.00147583;4063;1 mA
-0.279083;376.154;-0.00147949;4069;1 mA
-0.278168;376.338;-0.00147919;4075;1 mA
-0.277252;376.521;-0.00148407;4081;1 mA
-0.276337;376.704;-0.0014798;4087;1 mA
-0.275421;376.887;-0.00147888;4093;1 mA
-0.274506;377.07;-0.0014801;4099;1 mA
-0.27359;377.253;-0.00148468;4105;1 mA
-0.272675;377.436;-0.00148285;4111;1 mA
-0.271759;377.619;-0.00147644;4117;1 mA
-0.270844;377.802;-0.00148804;4123;1 mA
-0.269928;377.986;-0.0014798;4129;1 mA
-0.269012;378.169;-0.00147949;4135;1 mA
-0.268097;378.352;-0.00148315;4141;1 mA
-0.267181;378.535;-0.00147614;4147;1 mA
-0.266266;378.718;-0.00147827;4153;1 mA
-0.26535;378.901;-0.00148132;4159;1 mA
-0.264435;379.084;-0.00147522;4165;1 mA
-0.263519;379.267;-0.00147247;4171;1 mA
-0.262604;379.45;-0.00147675;4177;1 mA
-0.261688;379.634;-0.00147369;4183;1 mA
-0.260773;379.817;-0.00147522;4189;1 mA
-0.259857;380;-0.00147491;4195;1 mA
-0.258942;380.183;-0.00147644;4201;1 mA
-0.258026;380.366;-0.00147308;4207;1 mA
-0.257111;380.549;-0.00146942;4213;1 mA
-0.256195;380.732;-0.00148071;4219;1 mA
-0.25528;380.915;-0.00147644;4225;1 mA
-0.254364;381.098;-0.00146973;4231;1 mA
-0.253448;381.282;-0.00147919;4237;1 mA
-0.252533;381.465;-0.00147064;4243;1 mA
-0.251617;381.648;-0.00147278;4249;1 mA
-0.250702;381.831;-0.00147888;4255;1 mA
-0.249786;382.014;-0.00147034;4261;1 mA
-0.248871;382.197;-0.00147064;4267;1 mA
-0.247955;382.38;-0.00146973;4273;1 mA
-0.24704;382.563;-0.00147064;4279;1 mA
-0.246124;382.746;-0.00147369;4285;1 mA
-0.245209;382.929;-0.00147125;4291;1 mA
-0.244293;383.113;-0.00147064;4297;1 mA
-0.243378;383.296;-0.00147003;4303;1 mA
-0.242462;383.479;-0.00147339;4309;1 mA
-0.241547;383.662;-0.0014679;4315;1 mA
-0.240631;383.845;-0.00146698;4321;1 mA
-0.239716;384.028;-0.00146545;4327;1 mA
-0.2388;384.211;-0.00146545;4333;1 mA
-0.237885;384.394;-0.00146851;4339;1 mA
-0.236969;384.577;-0.00147186;4345;1 mA
-0.236053;384.761;-0.00147095;4351;1 mA
-0.235138;384.944;-0.00147034;4357;1 mA
-0.234222;385.127;-0.0014679;4363;1 mA
-0.233307;385.31;-0.00146698;4369;1 mA
-0.232391;385.493;-0.00146515;4375;1 mA
-0.231476;385.676;-0.00146637;4381;1 mA
-0.23056;385.859;-0.00146545;4387;1 mA
-0.229645;386.042;-0.0014743;4393;1 mA
-0.228729;386.225;-0.00146606;4399;1 mA
-0.227814;386.409;-0.00146606;4405;1 mA
-0.226898;386.592;-0.00146545;4411;1 mA
-0.225983;386.775;-0.00145782;4417;1 mA
-0.225067;386.958;-0.00146362;4423;1 mA
-0.224152;387.141;-0.00146698;4429;1 mA
-0.223236;387.324;-0.00146606;4435;1 mA
-0.222321;387.507;-0.00146545;4441;1 mA
-0.221405;387.69;-0.00146515;4447;1 mA
-0.22049;387.873;-0.00146118;4453;1 mA
-0.219574;388.057;-0.0014566;4459;1 mA
-0.218658;388.24;-0.00145721;4465;1 mA
-0.217743;388.423;-0.00146149;4471;1 mA
-0.216827;388.606;-0.00145813;4477;1 mA
-0.215912;388.789;-0.00146179;4483;1 mA
-0.214996;388.972;-0.00146301;4489;1 mA
-0.214081;389.155;-0.00146301;4495;1 mA
-0.213165;389.338;-0.00146027;4501;1 mA
-0.21225;389.521;-0.00145966;4507;1 mA
-0.211334;389.704;-0.00145813;4513;1 mA
-0.210419;389.888;-0.00145569;4519;1 mA
-0.209503;390.071;-0.00146088;4525;1 mA
-0.208588;390.254;-0.00145935;4531;1 mA
-0.207672;390.437;-0.00145905;4537;1 mA
-0.206757;390.62;-0.00145538;4543;1 mA
-0.205841;390.803;-0.00145416;4549;1 mA
-0.204926;390.986;-0.00144989;4555;1 mA
-0.20401;391.169;-0.0014563;4561;1 mA
-0.203094;391.352;-0.00145477;4567;1 mA
-0.202179;391.536;-0.00145874;4573;1 mA
-0.201263;391.719;-0.00145325;4579;1 mA
-0.200348;391.902;-0.00145721;4585;1 mA
-0.199432;392.085;-0.00145355;4591;1 mA
-0.198517;392.268;-0.0014502;4597;1 mA
-0.197601;392.451;-0.00144958;4603;1 mA
-0.196686;392.634;-0.00144714;4609;1 mA
-0.19577;392.817;-0.00144867;4615;1 mA
-0.194855;393;-0.00145081;4621;1 mA
-0.193939;393.184;-0.00145172;4627;1 mA
-0.193024;393.367;-0.00145142;4633;1 mA
-0.192108;393.55;-0.00144806;4639;1 mA
-0.191193;393.733;-0.0014444;4645;1 mA
-0.190277;393.916;-0.00144775;4651;1 mA
-0.189362;394.099;-0.00144745;4657;1 mA
-0.188446;394.282;-0.00144623;4663;1 mA
-0.187531;394.465;-0.0014447;4669;1 mA
-0.186615;394.648;-0.0014447;4675;1 mA
-0.185699;394.832;-0.00144653;4681;1 mA
-0.184784;395.015;-0.00144745;4687;1 mA
-0.183868;395.198;-0.00144318;4693;1 mA
-0.182953;395.381;-0.00144135;4699;1 mA
-0.182037;395.564;-0.00144012;4705;1 mA
-0.181122;395.747;-0.00143738;4711;1 mA
-0.180206;395.93;-0.00144257;4717;1 mA
-0.179291;396.113;-0.00144043;4723;1 mA
-0.178375;396.296;-0.00144379;4729;1 mA
-0.17746;396.479;-0.00144104;4735;1 mA
-0.176544;396.663;-0.00143738;4741;1 mA
-0.175629;396.846;-0.00143829;4747;1 mA
-0.174713;397.029;-0.00143585;4753;1 mA
-0.173798;397.212;-0.00143616;4759;1 mA
-0.172882;397.395;-0.00143768;4765;1 mA
-0.171967;397.578;-0.00143799;4771;1 mA
-0.171051;397.761;-0.00143768;4777;1 mA
-0.170135;397.944;-0.00144135;4783;1 mA
-0.16922;398.127;-0.00142944;4789;1 mA
-0.168304;398.311;-0.0014325;4795;1 mA
-0.167389;398.494;-0.00142975;4801;1 mA
-0.166473;398.677;-0.00143372;4807;1 mA
-0.165558;398.86;-0.00142914;4813;1 mA
-0.164642;399.043;-0.00143463;4819;1 mA
-0.163727;399.226;-0.00143158;4825;1 mA
-0.162811;399.409;-0.00143311;4831;1 mA
-0.161896;399.592;-0.00143127;4837;1 mA
-0.16098;399.775;-0.00142914;4843;1 mA
-0.160065;399.959;-0.0014325;4849;1 mA
-0.159149;400.142;-0.00142853;4855;1 mA
-0.158234;400.325;-0.001427;4861;1 mA
-0.157318;400.508;-0.00142731;4867;1 mA
-0.156403;400.691;-0.00142883;4873;1 mA
-0.155487;400.874;-0.00142883;4879;1 mA
-0.154572;401.057;-0.001427;4885;1 mA
-0.153656;401.24;-0.00142517;4891;1 mA
-0.15274;401.423;-0.00142273;4897;1 mA
-0.151825;401.607;-0.00142487;4903;1 mA
-0.150909;401.79;-0.00142365;4909;1 mA
-0.149994;401.973;-0.0014212;4915;1 mA
-0.149078;402.156;-0.00142242;4921;1 mA
-0.148163;402.339;-0.00142029;4927;1 mA
-0.147247;402.522;-0.00142029;4933;1 mA
-0.146332;402.705;-0.0014209;4939;1 mA
-0.145416;402.888;-0.00141998;4945;1 mA
-0.144501;403.071;-0.00141693;4951;1 mA
-0.143585;403.254;-0.00141388;4957;1 mA
-0.14267;403.438;-0.00141663;4963;1 mA
-0.141754;403.621;-0.0014209;4969;1 mA
-0.140839;403.804;-0.00141876;4975;1 mA
-0.139923;403.987;-0.00141602;4981;1 mA
-0.139008;404.17;-0.00141693;4987;1 mA
-0.138092;404.353;-0.00141144;4993;1 mA
-0.137177;404.536;-0.00141327;4999;1 mA
-0.136261;404.719;-0.00141022;5005;1 mA
-0.135345;404.902;-0.00141113;5011;1 mA
-0.13443;405.086;-0.001409;5017;1 mA
-0.133514;405.269;-0.00141235;5023;1 mA
-0.132599;405.452;-0.00141052;5029;1 mA
-0.131683;405.635;-0.00140991;5035;1 mA
-0.130768;405.818;-0.00140564;5041;1 mA
-0.129852;406.001;-0.00140411;5047;1 mA
-0.128937;406.184;-0.00140076;5053;1 mA
-0.128021;406.367;-0.00140442;5059;1 mA
-0.127106;406.55;-0.00140411;5065;1 mA
-0.12619;406.734;-0.00140747;5071;1 mA
-0.125275;406.917;-0.00140381;5077;1 mA
-0.124359;407.1;-0.00140533;5083;1 mA
-0.123444;407.283;-0.00139954;5089;1 mA
-0.122528;407.466;-0.00139771;5095;1 mA
-0.121613;407.649;-0.00140167;5101;1 mA
-0.120697;407.832;-0.00140015;5107;1 mA
-0.119781;408.015;-0.00139832;5113;1 mA
-0.118866;408.198;-0.00139465;5119;1 mA
-0.11795;408.382;-0.00138977;5125;1 mA
-0.117035;408.565;-0.00138977;5131;1 mA
-0.116119;408.748;-0.00138947;5137;1 mA
-0.115204;408.931;-0.00138916;5143;1 mA
-0.114288;409.114;-0.00139038;5149;1 mA
-0.113373;409.297;-0.00138824;5155;1 mA
-0.112457;409.48;-0.00139008;5161;1 mA
-0.111542;409.663;-0.00139404;5167;1 mA
-0.110626;409.846;-0.0013855;5173;1 mA
-0.109711;410.029;-0.00138306;5179;1 mA
-0.108795;410.213;-0.0013858;5185;1 mA
-0.10788;410.396;-0.00138184;5191;1 mA
-0.106964;410.579;-0.0013797;5197;1 mA
-0.106049;410.762;-0.00137756;5203;1 mA
-0.105133;410.945;-0.00137726;5209;1 mA
-0.104218;411.128;-0.00138031;5215;1 mA
-0.103302;411.311;-0.00137787;5221;1 mA
-0.102386;411.494;-0.00137573;5227;1 mA
-0.101471;411.677;-0.0013739;5233;1 mA
-0.100555;411.861;-0.0013736;5239;1 mA
-0.0996399;412.044;-0.0013678;5245;1 mA
-0.0987244;412.227;-0.00137054;5251;1 mA
-0.0978088;412.41;-0.0013681;5257;1 mA
-0.0968933;412.593;-0.00136871;5263;1 mA
-0.0959778;412.776;-0.00136505;5269;1 mA
-0.0950623;412.959;-0.00136414;5275;1 mA
-0.0941467;413.142;-0.00136475;5281;1 mA
-0.0932312;413.325;-0.00135925;5287;1 mA
-0.0923157;413.509;-0.00135803;5293;1 mA
-0.0914001;413.692;-0.00135864;5299;1 mA
-0.0904846;413.875;-0.00135376;5305;1 mA
-0.0895691;414.058;-0.00135468;5311;1 mA
-0.0886536;414.241;-0.00135956;5317;1 mA
-0.087738;414.424;-0.00135162;5323;1 mA
-0.0868225;414.607;-0.0013504;5329;1 mA
-0.085907;414.79;-0.00134491;5335;1 mA
-0.0849915;414.973;-0.00134644;5341;1 mA
-0.0840759;415.156;-0.00134338;5347;1 mA
-0.0831604;415.34;-0.00134613;5353;1 mA
-0.0822449;415.523;-0.00134399;5359;1 mA
-0.0813293;415.706;-0.00134064;5365;1 mA
-0.0804138;415.889;-0.00134247;5371;1 mA
-0.0794983;416.072;-0.00133728;5377;1 mA
-0.0785828;416.255;-0.00133331;5383;1 mA
-0.0776672;416.438;-0.00133148;5389;1 mA
-0.0767517;416.621;-0.00133057;5395;1 mA
-0.0758362;416.804;-0.00132751;5401;1 mA
-0.0749207;416.988;-0.00132568;5407;1 mA
-0.0740051;417.171;-0.00132538;5413;1 mA
-0.0730896;417.354;-0.0013205;5419;1 mA
-0.0721741;417.537;-0.00132111;5425;1 mA
-0.0712585;417.72;-0.00131897;5431;1 mA
-0.070343;417.903;-0.001315;5437;1 mA
-0.0694275;418.086;-0.00131378;5443;1 mA
-0.068512;418.269;-0.00130676;5449;1 mA
-0.0675964;418.452;-0.00130524;5455;1 mA
-0.0666809;418.636;-0.00130859;5461;1 mA
-0.0657654;418.819;-0.00130127;5467;1 mA
-0.0648499;419.002;-0.001297;5473;1 mA
-0.0639343;419.185;-0.00129639;5479;1 mA
-0.0630188;419.368;-0.00129028;5485;1 mA
-0.0621033;419.551;-0.00129059;5491;1 mA
-0.0611877;419.734;-0.00128723;5497;1 mA
-0.0602722;419.917;-0.00128387;5503;1 mA
-0.0593567;420.1;-0.00128143;5509;1 mA
-0.0584412;420.284;-0.0012796;5515;1 mA
-0.0575256;420.467;-0.00127441;5521;1 mA
-0.0566101;420.65;-0.00127045;5527;1 mA
-0.0556946;420.833;-0.00126312;5533;1 mA
-0.0547791;421.016;-0.00126038;5539;1 mA
-0.0538635;421.199;-0.00125824;5545;1 mA
-0.052948;421.382;-0.00126068;5551;1 mA
-0.0520325;421.565;-0.00125519;5557;1 mA
-0.0511169;421.748;-0.00125122;5563;1 mA
-0.0502014;421.931;-0.00124664;5569;1 mA
-0.0492859;422.115;-0.00123779;5575;1 mA
-0.0483704;422.298;-0.00123566;5581;1 mA
-0.0474548;422.481;-0.00123108;5587;1 mA
-0.0465393;422.664;-0.0012265;5593;1 mA
-0.0456238;422.847;-0.00122559;5599;1 mA
-0.0447083;423.03;-0.00121948;5605;1 mA
-0.0437927;423.213;-0.0012146;5611;1 mA
-0.0428772;423.396;-0.00121002;5617;1 mA
-0.0419617;423.579;-0.00120941;5623;1 mA
-0.0410461;423.763;-0.00119812;5629;1 mA
-0.0401306;423.946;-0.00119324;5635;1 mA
-0.0392151;424.129;-0.00118805;5641;1 mA
-0.0382996;424.312;-0.001185;5647;1 mA
-0.037384;424.495;-0.0011792;5653;1 mA
-0.0364685;424.678;-0.00117279;5659;1 mA
-0.035553;424.861;-0.00116333;5665;1 mA
-0.0346375;425.044;-0.00116028;5671;1 mA
-0.0337219;425.227;-0.00115234;5677;1 mA
-0.0328064;425.411;-0.00114471;5683;1 mA
-0.0318909;425.594;-0.00114044;5689;1 mA
-0.0309753;425.777;-0.00113678;5695;1 mA
-0.0300598;425.96;-0.00112946;5701;1 mA
-0.0291443;426.143;-0.00112274;5707;1 mA
-0.0282288;426.326;-0.00111328;5713;1 mA
-0.0273132;426.509;-0.00110657;5719;1 mA
-0.0263977;426.692;-0.00109863;5725;1 mA
-0.0254822;426.875;-0.00108887;5731;1 mA
-0.0245667;427.059;-0.00108215;5737;1 mA
-0.0236511;427.242;-0.00107605;5743;1 mA
-0.0227356;427.425;-0.00106842;5749;1 mA
-0.0218201;427.608;-0.00105988;5755;1 mA
-0.0209045;427.791;-0.00105011;5761;1 mA
-0.019989;427.974;-0.00104095;5767;1 mA
-0.0190735;428.157;-0.00102997;5773;1 mA
-0.018158;428.34;-0.00102203;5779;1 mA
-0.0172424;428.523;-0.00101471;5785;1 mA
-0.0163269;428.706;-0.00100891;5791;1 mA
-0.0154114;428.89;-0.000995483;5797;1 mA
-0.0144958;429.073;-0.000987244;5803;1 mA
-0.0135803;429.256;-0.000975647;5809;1 mA
-0.0126648;429.439;-0.000964355;5815;1 mA
-0.0117493;429.622;-0.000950623;5821;1 mA
-0.0108337;429.805;-0.000941162;5827;1 mA
-0.00991821;429.988;-0.000935059;5833;1 mA
-0.00900269;430.171;-0.000922546;5839;1 mA
-0.00808716;430.354;-0.00091095;5845;1 mA
-0.00717163;430.538;-0.000900269;5851;1 mA
-0.0062561;430.721;-0.000887756;5857;1 mA
-0.00534058;430.904;-0.000875854;5863;1 mA
-0.00442505;431.087;-0.000862427;5869;1 mA
-0.00350952;431.27;-0.000849304;5875;1 mA
-0.00259399;431.453;-0.000839539;5881;1 mA
-0.00167847;431.636;-0.000827942;5887;1 mA
-0.000762939;431.819;-0.00081543;5893;1 mA
0.000152588;432.002;-0.000803528;5899;1 mA
0.00106812;432.186;-0.000791626;5905;1 mA
0.00198364;432.369;-0.000777588;5911;1 mA
0.00289917;432.552;-0.000764465;5917;1 mA
0.0038147;432.735;-0.000751343;5923;1 mA
0.00473022;432.918;-0.000738525;5929;1 mA
0.00564575;433.101;-0.000725708;5935;1 mA
0.00656128;433.284;-0.000713196;5941;1 mA
0.00747681;433.467;-0.000700073;5947;1 mA
0.00839233;433.65;-0.000686035;5953;1 mA
0.00930786;433.834;-0.000671387;5959;1 mA
0.0102234;434.017;-0.000657959;5965;1 mA
0.0111389;434.2;-0.000644531;5971;1 mA
0.0120544;434.383;-0.000630798;5977;1 mA
0.01297;434.566;-0.000617676;5983;1 mA
0.0138855;434.749;-0.000605164;5989;1 mA
0.014801;434.932;-0.000592346;5995;1 mA
0.0157166;435.115;-0.000578613;6001;1 mA
0.0166321;435.298;-0.000564575;6007;1 mA
0.0175476;435.481;-0.000550842;6013;1 mA
0.0184631;435.665;-0.000537109;6019;1 mA
0.0193787;435.848;-0.000523987;6025;1 mA
0.0202942;436.031;-0.000510864;6031;1 mA
0.0212097;436.214;-0.000498657;6037;1 mA
0.0221252;436.397;-0.000485962;6043;1 mA
0.0230408;436.58;-0.000472717;6049;1 mA
0.0239563;436.763;-0.000459808;6055;1 mA
0.0248718;436.946;-0.000446503;6061;1 mA
0.0257874;437.129;-0.000433197;6067;1 mA
0.0267029;437.313;-0.000420685;6073;1 mA
0.0276184;437.496;-0.000408936;6079;1 mA
0.0285339;437.679;-0.000397217;6085;1 mA
0.0294495;437.862;-0.000385529;6091;1 mA
0.030365;438.045;-0.000373322;6097;1 mA
0.0312805;438.228;-0.000361389;6103;1 mA
0.032196;438.411;-0.000349518;6109;1 mA
0.0331116;438.594;-0.000338074;6115;1 mA
0.0340271;438.777;-0.000327026;6121;1 mA
0.0349426;438.961;-0.000316162;6127;1 mA
0.0358582;439.144;-0.000305511;6133;1 mA
0.0367737;439.327;-0.000295105;6139;1 mA
0.0376892;439.51;-0.000284698;6145;1 mA
0.0386047;439.693;-0.0002742;6151;1 mA
0.0395203;439.876;-0.000264008;6157;1 mA
0.0404358;440.059;-0.000254272;6163;1 mA
0.0413513;440.242;-0.000244995;6169;1 mA
0.0422668;440.425;-0.000235992;6175;1 mA
0.0431824;440.609;-0.000227295;6181;1 mA
0.0440979;440.792;-0.000218842;6187;1 mA
0.0450134;440.975;-0.000210083;6193;1 mA
0.045929;441.158;-0.000201843;6199;1 mA
0.0468445;441.341;-0.000193329;6205;1 mA
0.04776;441.524;-0.000185211;6211;1 mA
0.0486755;441.707;-0.000177399;6217;1 mA
0.0495911;441.89;-0.000169922;6223;1 mA
0.0505066;442.073;-0.000163055;6229;1 mA
0.0514221;442.256;-0.000155945;6235;1 mA
0.0523376;442.44;-0.000149048;6241;1 mA
0.0532532;442.623;-0.000142334;6247;1 mA
0.0541687;442.806;-0.000136139;6253;1 mA
0.0550842;442.989;-0.000129883;6259;1 mA
0.0559998;443.172;-0.00012381;6265;1 mA
0.0569153;443.355;-0.000118073;6271;1 mA
0.0578308;443.538;-0.000112793;6277;1 mA
0.0587463;443.721;-0.000107208;6283;1 mA
0.0596619;443.904;-0.000102081;6289;1 mA
0.0605774;444.088;-9.68933e-05;6295;1 mA
0.0614929;444.271;-9.2041e-05;6301;1 mA
0.0624084;444.454;-8.70361e-05;6307;1 mA
0.063324;444.637;-8.26721e-05;6313;1 mA
0.0642395;444.82;-7.80334e-05;6319;1 mA
0.065155;445.003;-7.40051e-05;6325;1 mA
0.0660706;445.186;-7.02515e-05;6331;1 mA
0.0669861;445.369;-6.62231e-05;6337;1 mA
0.0679016;445.552;-6.25305e-05;6343;1 mA
0.0688171;445.736;-5.89905e-05;6349;1 mA
0.0697327;445.919;-5.54504e-05;6355;1 mA
0.0706482;446.102;-5.20935e-05;6361;1 mA
0.0715637;446.285;-4.90723e-05;6367;1 mA
0.0724792;446.468;-4.61517e-05;6373;1 mA
0.0733948;446.651;-4.3222e-05;6379;1 mA
0.0743103;446.834;-4.04572e-05;6385;1 mA
0.0752258;447.017;-3.77838e-05;6391;1 mA
0.0761414;447.2;-3.51532e-05;6397;1 mA
0.0770569;447.384;-3.26996e-05;6403;1 mA
0.0779724;447.567;-3.03711e-05;6409;1 mA
0.0788879;447.75;-2.79053e-05;6415;1 mA
0.0798035;447.933;-2.59216e-05;6421;1 mA
0.080719;448.116;-2.38617e-05;6427;1 mA
0.0816345;448.299;-2.16949e-05;6433;1 mA
0.08255;448.482;-1.97662e-05;6439;1 mA
0.0834656;448.665;-1.81763e-05;6445;1 mA
0.0843811;448.848;-1.64307e-05;6451;1 mA
0.0852966;449.031;-1.47766e-05;6457;1 mA
0.0862122;449.215;-1.30829e-05;6463;1 mA
0.0871277;449.398;-1.14014e-05;6469;1 mA
0.0880432;449.581;-1.01196e-05;6475;1 mA
0.0889587;449.764;-8.95386e-06;6481;1 mA
0.0898743;449.947;-7.45544e-06;6487;1 mA
0.0907898;450.13;-6.05164e-06;6493;1 mA
0.0917053;450.313;-5.02014e-06;6499;1 mA
0.0926208;450.496;-3.7384e-06;6505;1 mA
0.0935364;450.679;-2.74658e-06;6511;1 mA
0.0944519;450.863;-1.63574e-06;6517;1 mA
0.0953674;451.046;-8.94165e-07;6523;1 mA
0.096283;451.229;3.479e-07;6529;1 mA
0.0971985;451.412;1.22986e-06;6535;1 mA
0.098114;451.595;2.07214e-06;6541;1 mA
0.0990295;451.778;2.71912e-06;6547;1 mA
0.0999451;451.961;3.5553e-06;6553;1 mA
0.100861;452.144;4.43726e-06;6559;1 mA
0.101776;452.327;5.17273e-06;6565;1 mA
0.102692;452.511;5.68848e-06;6571;1 mA
0.103607;452.694;6.45752e-06;6577;1 mA
0.104523;452.877;7.10144e-06;6583;1 mA
0.105438;453.06;7.40356e-06;6589;1 mA
0.106354;453.243;8.17871e-06;6595;1 mA
0.107269;453.426;8.80127e-06;6601;1 mA
0.108185;453.609;9.18274e-06;6607;1 mA
0.1091;453.792;9.60388e-06;6613;1 mA
0.110016;453.975;1.03271e-05;6619;1 mA
0.110931;454.159;1.07819e-05;6625;1 mA
0.111847;454.342;1.13129e-05;6631;1 mA
0.112762;454.525;1.16241e-05;6637;1 mA
0.113678;454.708;1.20483e-05;6643;1 mA
0.114594;454.891;1.24786e-05;6649;1 mA
0.115509;455.074;1.28357e-05;6655;1 mA
0.116425;455.257;1.31653e-05;6661;1 mA
0.11734;455.44;1.33606e-05;6667;1 mA
0.118256;455.623;1.39343e-05;6673;1 mA
0.119171;455.806;1.42944e-05;6679;1 mA
0.120087;455.99;1.45538e-05;6685;1 mA
0.121002;456.173;1.46698e-05;6691;1 mA
0.121918;456.356;1.49292e-05;6697;1 mA
0.122833;456.539;1.52893e-05;6703;1 mA
0.123749;456.722;1.5387e-05;6709;1 mA
0.124664;456.905;1.57013e-05;6715;1 mA
0.12558;457.088;1.59149e-05;6721;1 mA
0.126495;457.271;1.63452e-05;6727;1 mA
0.127411;457.454;1.62811e-05;6733;1 mA
0.128326;457.638;1.67206e-05;6739;1 mA
0.129242;457.821;1.67542e-05;6745;1 mA
0.130157;458.004;1.6925e-05;6751;1 mA
0.131073;458.187;1.73035e-05;6757;1 mA
0.131989;458.37;1.73431e-05;6763;1 mA
0.132904;458.553;1.73615e-05;6769;1 mA
0.13382;458.736;1.77032e-05;6775;1 mA
0.134735;458.919;1.76086e-05;6781;1 mA
0.135651;459.102;1.76636e-05;6787;1 mA
0.136566;459.286;1.79535e-05;6793;1 mA
0.137482;459.469;1.78986e-05;6799;1 mA
0.138397;459.652;1.82983e-05;6805;1 mA
0.139313;459.835;1.82739e-05;6811;1 mA
0.140228;460.018;1.86127e-05;6817;1 mA
0.141144;460.201;1.86707e-05;6823;1 mA
0.142059;460.384;1.86249e-05;6829;1 mA
0.142975;460.567;1.8515e-05;6835;1 mA
0.14389;460.75;1.87836e-05;6841;1 mA
0.144806;460.933;1.89575e-05;6847;1 mA
0.145721;461.117;1.9043e-05;6853;1 mA
0.146637;461.3;1.92902e-05;6859;1 mA
0.147552;461.483;1.9104e-05;6865;1 mA
0.148468;461.666;1.92719e-05;6871;1 mA
0.149384;461.849;1.90887e-05;6877;1 mA
0.150299;462.032;1.93085e-05;6883;1 mA
0.151215;462.215;1.91864e-05;6889;1 mA
0.15213;462.398;1.93481e-05;6895;1 mA
0.153046;462.581;1.93878e-05;6901;1 mA
0.153961;462.765;1.9455e-05;6907;1 mA
0.154877;462.948;1.96716e-05;6913;1 mA
0.155792;463.131;1.97693e-05;6919;1 mA
0.156708;463.314;1.98486e-05;6925;1 mA
0.157623;463.497;1.97205e-05;6931;1 mA
0.158539;463.68;1.98669e-05;6937;1 mA
0.159454;463.863;1.97296e-05;6943;1 mA
0.16037;464.046;1.99188e-05;6949;1 mA
0.161285;464.229;1.99219e-05;6955;1 mA
0.162201;464.413;2.00806e-05;6961;1 mA
0.163116;464.596;2.00073e-05;6967;1 mA
0.164032;464.779;1.99921e-05;6973;1 mA
0.164948;464.962;2.0108e-05;6979;1 mA
0.165863;465.145;2.00287e-05;6985;1 mA
0.166779;465.328;2.01599e-05;6991;1 mA
0.167694;465.511;2.02271e-05;6997;1 mA
0.16861;465.694;2.01508e-05;7003;1 mA
0.169525;465.877;2.03247e-05;7009;1 mA
0.170441;466.061;2.03583e-05;7015;1 mA
0.171356;466.244;2.04224e-05;7021;1 mA
0.172272;466.427;2.04346e-05;7027;1 mA
0.173187;466.61;2.03705e-05;7033;1 mA
0.174103;466.793;2.03552e-05;7039;1 mA
0.175018;466.976;2.04346e-05;7045;1 mA
0.175934;467.159;2.05139e-05;7051;1 mA
0.176849;467.342;2.05536e-05;7057;1 mA
0.177765;467.525;2.05566e-05;7063;1 mA
0.17868;467.708;2.0462e-05;7069;1 mA
0.179596;467.892;2.05261e-05;7075;1 mA
0.180511;468.075;2.05688e-05;7081;1 mA
0.181427;468.258;2.05444e-05;7087;1 mA
0.182343;468.441;2.06177e-05;7093;1 mA
0.183258;468.624;2.07428e-05;7099;1 mA
0.184174;468.807;2.07642e-05;7105;1 mA
0.185089;468.99;2.06787e-05;7111;1 mA
0.186005;469.173;2.05414e-05;7117;1 mA
0.18692;469.356;2.07306e-05;7123;1 mA
0.187836;469.54;2.04834e-05;7129;1 mA
0.188751;469.723;2.05566e-05;7135;1 mA
0.189667;469.906;2.0636e-05;7141;1 mA
0.190582;470.089;2.08099e-05;7147;1 mA
0.191498;470.272;2.08282e-05;7153;1 mA
0.192413;470.455;2.08374e-05;7159;1 mA
0.193329;470.638;2.07428e-05;7165;1 mA
0.194244;470.821;2.06482e-05;7171;1 mA
0.19516;471.004;2.05811e-05;7177;1 mA
0.196075;471.188;2.07367e-05;7183;1 mA
0.196991;471.371;2.07458e-05;7189;1 mA
0.197906;471.554;2.06116e-05;7195;1 mA
0.198822;471.737;2.07214e-05;7201;1 mA
0.199738;471.92;2.07062e-05;7207;1 mA
0.200043;471.981;2.0639e-05;7209;1 mA