File: Exmaple/Sample1/ORR.txt
Potential applied (V);Time (s);WE(1).Current (A);Index;Current range
-0.899811;197.985;-0.00148651;1;1 mA
-0.898895;198.168;-0.00148956;7;1 mA
-0.89798;198.351;-0.00148529;13;1 mA
-0.897064;198.535;-0.00148315;19;1 mA
-0.896149;198.718;-0.00148224;25;1 mA
-0.895233;198.901;-0.00148041;31;1 mA
-0.894318;199.084;-0.00148041;37;1 mA
-0.893402;199.267;-0.00148041;43;1 mA
-0.892487;199.45;-0.00148376;49;1 mA
-0.891571;199.633;-0.00148163;55;1 mA
-0.890656;199.816;-0.00147949;61;1 mA
-0.88974;199.999;-0.00147949;67;1 mA
-0.888824;200.183;-0.00148041;73;1 mA
-0.887909;200.366;-0.0014801;79;1 mA
-0.886993;200.549;-0.00147522;85;1 mA
-0.886078;200.732;-0.00147675;91;1 mA
-0.885162;200.915;-0.0014798;97;1 mA
-0.884247;201.098;-0.00147797;103;1 mA
-0.883331;201.281;-0.00147644;109;1 mA
-0.882416;201.464;-0.00147522;115;1 mA
-0.8815;201.647;-0.00147491;121;1 mA
-0.880585;201.831;-0.00147278;127;1 mA
-0.879669;202.014;-0.00147675;133;1 mA
-0.878754;202.197;-0.00147369;139;1 mA
-0.877838;202.38;-0.00147705;145;1 mA
-0.876923;202.563;-0.00147736;151;1 mA
-0.876007;202.746;-0.00148163;157;1 mA
-0.875092;202.929;-0.00147766;163;1 mA
-0.874176;203.112;-0.00147675;169;1 mA
-0.87326;203.295;-0.00147736;175;1 mA
-0.872345;203.478;-0.00147552;181;1 mA
-0.871429;203.662;-0.00147583;187;1 mA
-0.870514;203.845;-0.00147644;193;1 mA
-0.869598;204.028;-0.00147583;199;1 mA
-0.868683;204.211;-0.00147827;205;1 mA
-0.867767;204.394;-0.00147675;211;1 mA
-0.866852;204.577;-0.00147827;217;1 mA
-0.865936;204.76;-0.00147522;223;1 mA
-0.865021;204.943;-0.0014801;229;1 mA
-0.864105;205.126;-0.00148102;235;1 mA
-0.86319;205.31;-0.0014798;241;1 mA
-0.862274;205.493;-0.00147736;247;1 mA
-0.861359;205.676;-0.00147888;253;1 mA
-0.860443;205.859;-0.00147522;259;1 mA
-0.859528;206.042;-0.00147583;265;1 mA
-0.858612;206.225;-0.00146942;271;1 mA
-0.857697;206.408;-0.0014798;277;1 mA
-0.856781;206.591;-0.00147583;283;1 mA
-0.855865;206.774;-0.0014743;289;1 mA
-0.85495;206.958;-0.00147797;295;1 mA
-0.854034;207.141;-0.00148163;301;1 mA
-0.853119;207.324;-0.00147888;307;1 mA
-0.852203;207.507;-0.00147705;313;1 mA
-0.851288;207.69;-0.00147736;319;1 mA
-0.850372;207.873;-0.00147461;325;1 mA
-0.849457;208.056;-0.00147552;331;1 mA
-0.848541;208.239;-0.00148041;337;1 mA
-0.847626;208.422;-0.00147797;343;1 mA
-0.84671;208.606;-0.00148193;349;1 mA
-0.845795;208.789;-0.00147766;355;1 mA
-0.844879;208.972;-0.00147491;361;1 mA
-0.843964;209.155;-0.00147491;367;1 mA
-0.843048;209.338;-0.0014798;373;1 mA
-0.842133;209.521;-0.00147766;379;1 mA
-0.841217;209.704;-0.00148193;385;1 mA
-0.840302;209.887;-0.00147827;391;1 mA
-0.839386;210.07;-0.00148285;397;1 mA
-0.83847;210.253;-0.00148163;403;1 mA
-0.837555;210.437;-0.0014801;409;1 mA
-0.836639;210.62;-0.0014859;415;1 mA
-0.835724;210.803;-0.00147705;421;1 mA
-0.834808;210.986;-0.00147339;427;1 mA
-0.833893;211.169;-0.00147522;433;1 mA
-0.832977;211.352;-0.00147949;439;1 mA
-0.832062;211.535;-0.00148254;445;1 mA
-0.831146;211.718;-0.00147614;451;1 mA
-0.830231;211.901;-0.0014801;457;1 mA
-0.829315;212.085;-0.00148285;463;1 mA
-0.8284;212.268;-0.00147644;469;1 mA
-0.827484;212.451;-0.00147705;475;1 mA
-0.826569;212.634;-0.0014856;481;1 mA
-0.825653;212.817;-0.00147614;487;1 mA
-0.824738;213;-0.00147888;493;1 mA
-0.823822;213.183;-0.00148315;499;1 mA
-0.822906;213.366;-0.0014743;505;1 mA
-0.821991;213.549;-0.00147766;511;1 mA
-0.821075;213.733;-0.00147797;517;1 mA
-0.82016;213.916;-0.00147552;523;1 mA
-0.819244;214.099;-0.00147766;529;1 mA
-0.818329;214.282;-0.00147614;535;1 mA
-0.817413;214.465;-0.00148132;541;1 mA
-0.816498;214.648;-0.00147949;547;1 mA
-0.815582;214.831;-0.00147797;553;1 mA
-0.814667;215.014;-0.00147614;559;1 mA
-0.813751;215.197;-0.00147888;565;1 mA
-0.812836;215.381;-0.00147278;571;1 mA
-0.81192;215.564;-0.0014798;577;1 mA
-0.811005;215.747;-0.00147949;583;1 mA
-0.810089;215.93;-0.00147858;589;1 mA
-0.809174;216.113;-0.00147736;595;1 mA
-0.808258;216.296;-0.00147949;601;1 mA
-0.807343;216.479;-0.0014798;607;1 mA
-0.806427;216.662;-0.0014798;613;1 mA
-0.805511;216.845;-0.00147858;619;1 mA
-0.804596;217.028;-0.00147827;625;1 mA
-0.80368;217.212;-0.0014798;631;1 mA
-0.802765;217.395;-0.0014798;637;1 mA
-0.801849;217.578;-0.00147919;643;1 mA
-0.800934;217.761;-0.00147919;649;1 mA
-0.800018;217.944;-0.00147583;655;1 mA
-0.799103;218.127;-0.00147766;661;1 mA
-0.798187;218.31;-0.00147919;667;1 mA
-0.797272;218.493;-0.00148132;673;1 mA
-0.796356;218.676;-0.00147644;679;1 mA
-0.795441;218.86;-0.00148163;685;1 mA
-0.794525;219.043;-0.0014798;691;1 mA
-0.79361;219.226;-0.00148346;697;1 mA
-0.792694;219.409;-0.00148132;703;1 mA
-0.791779;219.592;-0.00147827;709;1 mA
-0.790863;219.775;-0.0014801;715;1 mA
-0.789948;219.958;-0.00148071;721;1 mA
-0.789032;220.141;-0.001474;727;1 mA
-0.788116;220.324;-0.00148254;733;1 mA
-0.787201;220.508;-0.00147766;739;1 mA
-0.786285;220.691;-0.00147888;745;1 mA
-0.78537;220.874;-0.00147858;751;1 mA
-0.784454;221.057;-0.00148041;757;1 mA
-0.783539;221.24;-0.00147919;763;1 mA
-0.782623;221.423;-0.00147949;769;1 mA
-0.781708;221.606;-0.00148132;775;1 mA
-0.780792;221.789;-0.00148163;781;1 mA
-0.779877;221.972;-0.00147888;787;1 mA
-0.778961;222.155;-0.00147919;793;1 mA
-0.778046;222.339;-0.00148163;799;1 mA
-0.77713;222.522;-0.00147827;805;1 mA
-0.776215;222.705;-0.00147736;811;1 mA
-0.775299;222.888;-0.00147644;817;1 mA
-0.774384;223.071;-0.00147766;823;1 mA
-0.773468;223.254;-0.00147949;829;1 mA
-0.772552;223.437;-0.00148041;835;1 mA
-0.771637;223.62;-0.00148193;841;1 mA
-0.770721;223.803;-0.00148071;847;1 mA
-0.769806;223.987;-0.0014801;853;1 mA
-0.76889;224.17;-0.00147461;859;1 mA
-0.767975;224.353;-0.00147491;865;1 mA
-0.767059;224.536;-0.00147827;871;1 mA
-0.766144;224.719;-0.00147919;877;1 mA
-0.765228;224.902;-0.00148163;883;1 mA
-0.764313;225.085;-0.00147736;889;1 mA
-0.763397;225.268;-0.00147736;895;1 mA
-0.762482;225.451;-0.00148071;901;1 mA
-0.761566;225.635;-0.00148163;907;1 mA
-0.760651;225.818;-0.0014798;913;1 mA
-0.759735;226.001;-0.00147736;919;1 mA
-0.75882;226.184;-0.00148315;925;1 mA
-0.757904;226.367;-0.00147797;931;1 mA
-0.756989;226.55;-0.00147919;937;1 mA
-0.756073;226.733;-0.00147949;943;1 mA
-0.755157;226.916;-0.00147827;949;1 mA
-0.754242;227.099;-0.00147919;955;1 mA
-0.753326;227.283;-0.00147827;961;1 mA
-0.752411;227.466;-0.0014801;967;1 mA
-0.751495;227.649;-0.00147949;973;1 mA
-0.75058;227.832;-0.00148376;979;1 mA
-0.749664;228.015;-0.00147888;985;1 mA
-0.748749;228.198;-0.00148499;991;1 mA
-0.747833;228.381;-0.00148285;997;1 mA
-0.746918;228.564;-0.00147888;1003;1 mA
-0.746002;228.747;-0.00147858;1009;1 mA
-0.745087;228.93;-0.00148224;1015;1 mA
-0.744171;229.114;-0.00147888;1021;1 mA
-0.743256;229.297;-0.00148041;1027;1 mA
-0.74234;229.48;-0.00148041;1033;1 mA
-0.741425;229.663;-0.0014798;1039;1 mA
-0.740509;229.846;-0.00148254;1045;1 mA
-0.739594;230.029;-0.00148193;1051;1 mA
-0.738678;230.212;-0.00148102;1057;1 mA
-0.737762;230.395;-0.00148071;1063;1 mA
-0.736847;230.578;-0.00148102;1069;1 mA
-0.735931;230.762;-0.00148254;1075;1 mA
-0.735016;230.945;-0.00148163;1081;1 mA
-0.7341;231.128;-0.00148499;1087;1 mA
-0.733185;231.311;-0.00148499;1093;1 mA
-0.732269;231.494;-0.00148651;1099;1 mA
-0.731354;231.677;-0.00147675;1105;1 mA
-0.730438;231.86;-0.0014798;1111;1 mA
-0.729523;232.043;-0.00148071;1117;1 mA
-0.728607;232.226;-0.00148346;1123;1 mA
-0.727692;232.41;-0.00148407;1129;1 mA
-0.726776;232.593;-0.001484375;1135;1 mA
-0.725861;232.776;-0.00148346;1141;1 mA
-0.724945;232.959;-0.0014801;1147;1 mA
-0.72403;233.142;-0.00148193;1153;1 mA
-0.723114;233.325;-0.00148315;1159;1 mA
-0.722198;233.508;-0.00147583;1165;1 mA
-0.721283;233.691;-0.00147644;1171;1 mA
-0.720367;233.874;-0.00148315;1177;1 mA
-0.719452;234.058;-0.00148285;1183;1 mA
-0.718536;234.241;-0.00147736;1189;1 mA
-0.717621;234.424;-0.00148315;1195;1 mA
-0.716705;234.607;-0.0014798;1201;1 mA
-0.71579;234.79;-0.00148315;1207;1 mA
-0.714874;234.973;-0.00147919;1213;1 mA
-0.713959;235.156;-0.00148071;1219;1 mA
-0.713043;235.339;-0.00148163;1225;1 mA
-0.712128;235.522;-0.0014859;1231;1 mA
-0.711212;235.705;-0.00149109;1237;1 mA
-0.710297;235.889;-0.00148132;1243;1 mA
-0.709381;236.072;-0.00147644;1249;1 mA
-0.708466;236.255;-0.00147919;1255;1 mA
-0.70755;236.438;-0.00147919;1261;1 mA
-0.706635;236.621;-0.00147247;1267;1 mA
-0.705719;236.804;-0.00147888;1273;1 mA
-0.704803;236.987;-0.0014798;1279;1 mA
-0.703888;237.17;-0.00147858;1285;1 mA
-0.702972;237.353;-0.00148895;1291;1 mA
-0.702057;237.537;-0.00148102;1297;1 mA
-0.701141;237.72;-0.0014801;1303;1 mA
-0.700226;237.903;-0.00147949;1309;1 mA
-0.69931;238.086;-0.00148163;1315;1 mA
-0.698395;238.269;-0.00148163;1321;1 mA
-0.697479;238.452;-0.00147736;1327;1 mA
-0.696564;238.635;-0.00148102;1333;1 mA
-0.695648;238.818;-0.00147827;1339;1 mA
-0.694733;239.001;-0.00147644;1345;1 mA
-0.693817;239.185;-0.00147797;1351;1 mA
-0.692902;239.368;-0.0014798;1357;1 mA
-0.691986;239.551;-0.00148132;1363;1 mA
-0.691071;239.734;-0.00148071;1369;1 mA
-0.690155;239.917;-0.0014801;1375;1 mA
-0.68924;240.1;-0.00148529;1381;1 mA
-0.688324;240.283;-0.00148071;1387;1 mA
-0.687408;240.466;-0.00147614;1393;1 mA
-0.686493;240.649;-0.00148499;1399;1 mA
-0.685577;240.833;-0.00148407;1405;1 mA
-0.684662;241.016;-0.00148224;1411;1 mA
-0.683746;241.199;-0.00148163;1417;1 mA
-0.682831;241.382;-0.00147827;1423;1 mA
-0.681915;241.565;-0.00147827;1429;1 mA
-0.681;241.748;-0.00147858;1435;1 mA
-0.680084;241.931;-0.00147766;1441;1 mA
-0.679169;242.114;-0.00147644;1447;1 mA
-0.678253;242.297;-0.00148346;1453;1 mA
-0.677338;242.48;-0.00147705;1459;1 mA
-0.676422;242.664;-0.00148315;1465;1 mA
-0.675507;242.847;-0.00148041;1471;1 mA
-0.674591;243.03;-0.00148193;1477;1 mA
-0.673676;243.213;-0.00147644;1483;1 mA
-0.67276;243.396;-0.00148193;1489;1 mA
-0.671844;243.579;-0.00148285;1495;1 mA
-0.670929;243.762;-0.00148071;1501;1 mA
-0.670013;243.945;-0.001474;1507;1 mA
-0.669098;244.128;-0.0014801;1513;1 mA
-0.668182;244.312;-0.00148193;1519;1 mA
-0.667267;244.495;-0.0014798;1525;1 mA
-0.666351;244.678;-0.00148163;1531;1 mA
-0.665436;244.861;-0.00147858;1537;1 mA
-0.66452;245.044;-0.00147644;1543;1 mA
-0.663605;245.227;-0.0014801;1549;1 mA
-0.662689;245.41;-0.00147858;1555;1 mA
-0.661774;245.593;-0.00147827;1561;1 mA
-0.660858;245.776;-0.00148071;1567;1 mA
-0.659943;245.96;-0.00147675;1573;1 mA
-0.659027;246.143;-0.00148102;1579;1 mA
-0.658112;246.326;-0.00147644;1585;1 mA
-0.657196;246.509;-0.00147949;1591;1 mA
-0.656281;246.692;-0.00147705;1597;1 mA
-0.655365;246.875;-0.00147797;1603;1 mA
-0.654449;247.058;-0.00147949;1609;1 mA
-0.653534;247.241;-0.00148132;1615;1 mA
-0.652618;247.424;-0.0014798;1621;1 mA
-0.651703;247.608;-0.00147736;1627;1 mA
-0.650787;247.791;-0.00147705;1633;1 mA
-0.649872;247.974;-0.00147736;1639;1 mA
-0.648956;248.157;-0.00147797;1645;1 mA
-0.648041;248.34;-0.00147797;1651;1 mA
-0.647125;248.523;-0.00148285;1657;1 mA
-0.64621;248.706;-0.00148224;1663;1 mA
-0.645294;248.889;-0.00148346;1669;1 mA
-0.644379;249.072;-0.00148163;1675;1 mA
-0.643463;249.255;-0.00147308;1681;1 mA
-0.642548;249.439;-0.00147064;1687;1 mA
-0.641632;249.622;-0.00147095;1693;1 mA
-0.640717;249.805;-0.00147644;1699;1 mA
-0.639801;249.988;-0.0014801;1705;1 mA
-0.638885;250.171;-0.00147827;1711;1 mA
-0.63797;250.354;-0.00147736;1717;1 mA
-0.637054;250.537;-0.00147949;1723;1 mA
-0.636139;250.72;-0.00147858;1729;1 mA
-0.635223;250.903;-0.00147888;1735;1 mA
-0.634308;251.087;-0.00147858;1741;1 mA
-0.633392;251.27;-0.00147766;1747;1 mA
-0.632477;251.453;-0.00147919;1753;1 mA
-0.631561;251.636;-0.00147949;1759;1 mA
-0.630646;251.819;-0.00147552;1765;1 mA
-0.62973;252.002;-0.00147736;1771;1 mA
-0.628815;252.185;-0.00147308;1777;1 mA
-0.627899;252.368;-0.00147369;1783;1 mA
-0.626984;252.551;-0.00147766;1789;1 mA
-0.626068;252.735;-0.00147858;1795;1 mA
-0.625153;252.918;-0.00147705;1801;1 mA
-0.624237;253.101;-0.00147614;1807;1 mA
-0.623322;253.284;-0.00147705;1813;1 mA
-0.622406;253.467;-0.00147888;1819;1 mA
-0.62149;253.65;-0.00147919;1825;1 mA
-0.620575;253.833;-0.00148193;1831;1 mA
-0.619659;254.016;-0.00148041;1837;1 mA
-0.618744;254.199;-0.00148041;1843;1 mA
-0.617828;254.383;-0.00147827;1849;1 mA
-0.616913;254.566;-0.00147552;1855;1 mA
-0.615997;254.749;-0.00147614;1861;1 mA
-0.615082;254.932;-0.00147461;1867;1 mA
-0.614166;255.115;-0.00147675;1873;1 mA
-0.613251;255.298;-0.00146942;1879;1 mA
-0.612335;255.481;-0.00147278;1885;1 mA
-0.61142;255.664;-0.00147705;1891;1 mA
-0.610504;255.847;-0.00147614;1897;1 mA
-0.609589;256.03;-0.0014743;1903;1 mA
-0.608673;256.214;-0.00147949;1909;1 mA
-0.607758;256.397;-0.00147949;1915;1 mA
-0.606842;256.58;-0.00147949;1921;1 mA
-0.605927;256.763;-0.00147461;1927;1 mA
-0.605011;256.946;-0.00147736;1933;1 mA
-0.604095;257.129;-0.00147522;1939;1 mA
-0.60318;257.312;-0.00147491;1945;1 mA
-0.602264;257.495;-0.00148102;1951;1 mA
-0.601349;257.678;-0.00147919;1957;1 mA
-0.600433;257.862;-0.00147675;1963;1 mA
-0.599518;258.045;-0.00147614;1969;1 mA
-0.598602;258.228;-0.001474;1975;1 mA
-0.597687;258.411;-0.00147461;1981;1 mA
-0.596771;258.594;-0.00147644;1987;1 mA
-0.595856;258.777;-0.00147583;1993;1 mA
-0.59494;258.96;-0.00147491;1999;1 mA
-0.594025;259.143;-0.00147644;2005;1 mA
-0.593109;259.326;-0.00147491;2011;1 mA
-0.592194;259.51;-0.00147675;2017;1 mA
-0.591278;259.693;-0.00147491;2023;1 mA
-0.590363;259.876;-0.00147614;2029;1 mA
-0.589447;260.059;-0.00147552;2035;1 mA
-0.588531;260.242;-0.00147736;2041;1 mA
-0.587616;260.425;-0.00147369;2047;1 mA
-0.5867;260.608;-0.00147827;2053;1 mA
-0.585785;260.791;-0.00148224;2059;1 mA
-0.584869;260.974;-0.00147644;2065;1 mA
-0.583954;261.158;-0.00147156;2071;1 mA
-0.583038;261.341;-0.00147278;2077;1 mA
-0.582123;261.524;-0.00147278;2083;1 mA
-0.581207;261.707;-0.00147034;2089;1 mA
-0.580292;261.89;-0.00147461;2095;1 mA
-0.579376;262.073;-0.00146973;2101;1 mA
-0.578461;262.256;-0.00147278;2107;1 mA
-0.577545;262.439;-0.00147949;2113;1 mA
-0.57663;262.622;-0.00147552;2119;1 mA
-0.575714;262.805;-0.00147125;2125;1 mA
-0.574799;262.989;-0.00147217;2131;1 mA
-0.573883;263.172;-0.00147278;2137;1 mA
-0.572968;263.355;-0.00147217;2143;1 mA
-0.572052;263.538;-0.00147339;2149;1 mA
-0.571136;263.721;-0.00147186;2155;1 mA
-0.570221;263.904;-0.00147125;2161;1 mA
-0.569305;264.087;-0.00147186;2167;1 mA
-0.56839;264.27;-0.00147064;2173;1 mA
-0.567474;264.453;-0.00147217;2179;1 mA
-0.566559;264.637;-0.00147461;2185;1 mA
-0.565643;264.82;-0.00147308;2191;1 mA
-0.564728;265.003;-0.00147308;2197;1 mA
-0.563812;265.186;-0.00147675;2203;1 mA
-0.562897;265.369;-0.00147583;2209;1 mA
-0.561981;265.552;-0.00147125;2215;1 mA
-0.561066;265.735;-0.0014743;2221;1 mA
-0.56015;265.918;-0.00147339;2227;1 mA
-0.559235;266.101;-0.0014743;2233;1 mA
-0.558319;266.285;-0.00147461;2239;1 mA
-0.557404;266.468;-0.00147034;2245;1 mA
-0.556488;266.651;-0.00146973;2251;1 mA
-0.555573;266.834;-0.00147125;2257;1 mA
-0.554657;267.017;-0.00146576;2263;1 mA
-0.553741;267.2;-0.0014679;2269;1 mA
-0.552826;267.383;-0.00146637;2275;1 mA
-0.55191;267.566;-0.00147034;2281;1 mA
-0.550995;267.749;-0.00147217;2287;1 mA
-0.550079;267.932;-0.00147034;2293;1 mA
-0.549164;268.116;-0.00146515;2299;1 mA
-0.548248;268.299;-0.00146698;2305;1 mA
-0.547333;268.482;-0.00146454;2311;1 mA
-0.546417;268.665;-0.00146973;2317;1 mA
-0.545502;268.848;-0.00146759;2323;1 mA
-0.544586;269.031;-0.00146545;2329;1 mA
-0.543671;269.214;-0.00146149;2335;1 mA
-0.542755;269.397;-0.00146759;2341;1 mA
-0.54184;269.58;-0.00146881;2347;1 mA
-0.540924;269.764;-0.00146973;2353;1 mA
-0.540009;269.947;-0.00146729;2359;1 mA
-0.539093;270.13;-0.0014621;2365;1 mA
-0.538177;270.313;-0.00146606;2371;1 mA
-0.537262;270.496;-0.00146942;2377;1 mA
-0.536346;270.679;-0.00146851;2383;1 mA
-0.535431;270.862;-0.00147034;2389;1 mA
-0.534515;271.045;-0.00146698;2395;1 mA
-0.5336;271.228;-0.00146912;2401;1 mA
-0.532684;271.412;-0.00146606;2407;1 mA
-0.531769;271.595;-0.00146881;2413;1 mA
-0.530853;271.778;-0.00147064;2419;1 mA
-0.529938;271.961;-0.00146698;2425;1 mA
-0.529022;272.144;-0.00146637;2431;1 mA
-0.528107;272.327;-0.00146698;2437;1 mA
-0.527191;272.51;-0.00147125;2443;1 mA
-0.526276;272.693;-0.00147095;2449;1 mA
-0.52536;272.876;-0.00146912;2455;1 mA
-0.524445;273.06;-0.00146545;2461;1 mA
-0.523529;273.243;-0.00146484;2467;1 mA
-0.522614;273.426;-0.00146118;2473;1 mA
-0.521698;273.609;-0.00146942;2479;1 mA
-0.520782;273.792;-0.00146942;2485;1 mA
-0.519867;273.975;-0.00147369;2491;1 mA
-0.518951;274.158;-0.00147034;2497;1 mA
-0.518036;274.341;-0.00147003;2503;1 mA
-0.51712;274.524;-0.00146912;2509;1 mA
-0.516205;274.707;-0.00146606;2515;1 mA
-0.515289;274.891;-0.00146759;2521;1 mA
-0.514374;275.074;-0.00146729;2527;1 mA
-0.513458;275.257;-0.00146393;2533;1 mA
-0.512543;275.44;-0.0014682;2539;1 mA
-0.511627;275.623;-0.00146545;2545;1 mA
-0.510712;275.806;-0.00147522;2551;1 mA
-0.509796;275.989;-0.00146271;2557;1 mA
-0.508881;276.172;-0.00146881;2563;1 mA
-0.507965;276.355;-0.00146484;2569;1 mA
-0.50705;276.539;-0.00146545;2575;1 mA
-0.506134;276.722;-0.00147064;2581;1 mA
-0.505219;276.905;-0.0014624;2587;1 mA
-0.504303;277.088;-0.00146454;2593;1 mA
-0.503387;277.271;-0.00146881;2599;1 mA
-0.502472;277.454;-0.00146423;2605;1 mA
-0.501556;277.637;-0.00146423;2611;1 mA
-0.500641;277.82;-0.00146454;2617;1 mA
-0.499725;278.003;-0.00146362;2623;1 mA
-0.49881;278.187;-0.00146423;2629;1 mA
-0.497894;278.37;-0.00147095;2635;1 mA
-0.496979;278.553;-0.0014679;2641;1 mA
-0.496063;278.736;-0.00146545;2647;1 mA
-0.495148;278.919;-0.00146149;2653;1 mA
-0.494232;279.102;-0.00146149;2659;1 mA
-0.493317;279.285;-0.00146149;2665;1 mA
-0.492401;279.468;-0.00146454;2671;1 mA
-0.491486;279.651;-0.00146576;2677;1 mA
-0.49057;279.835;-0.00146393;2683;1 mA
-0.489655;280.018;-0.00146271;2689;1 mA
-0.488739;280.201;-0.00146667;2695;1 mA
-0.487823;280.384;-0.00146851;2701;1 mA
-0.486908;280.567;-0.00146179;2707;1 mA
-0.485992;280.75;-0.00146332;2713;1 mA
-0.485077;280.933;-0.00146179;2719;1 mA
-0.484161;281.116;-0.00145966;2725;1 mA
-0.483246;281.299;-0.00146271;2731;1 mA
-0.48233;281.482;-0.00145874;2737;1 mA
-0.481415;281.666;-0.00146484;2743;1 mA
-0.480499;281.849;-0.00146088;2749;1 mA
-0.479584;282.032;-0.00146332;2755;1 mA
-0.478668;282.215;-0.00145844;2761;1 mA
-0.477753;282.398;-0.00146057;2767;1 mA
-0.476837;282.581;-0.00146576;2773;1 mA
-0.475922;282.764;-0.00146301;2779;1 mA
-0.475006;282.947;-0.00146393;2785;1 mA
-0.474091;283.13;-0.00145996;2791;1 mA
-0.473175;283.314;-0.00145721;2797;1 mA
-0.47226;283.497;-0.00146118;2803;1 mA
-0.471344;283.68;-0.00146271;2809;1 mA
-0.470428;283.863;-0.0014624;2815;1 mA
-0.469513;284.046;-0.00145752;2821;1 mA
-0.468597;284.229;-0.0014621;2827;1 mA
-0.467682;284.412;-0.00146179;2833;1 mA
-0.466766;284.595;-0.00146271;2839;1 mA
-0.465851;284.778;-0.00146301;2845;1 mA
-0.464935;284.962;-0.00146301;2851;1 mA
-0.46402;285.145;-0.0014566;2857;1 mA
-0.463104;285.328;-0.00146088;2863;1 mA
-0.462189;285.511;-0.00146271;2869;1 mA
-0.461273;285.694;-0.00145813;2875;1 mA
-0.460358;285.877;-0.00146057;2881;1 mA
-0.459442;286.06;-0.00145996;2887;1 mA
-0.458527;286.243;-0.00145935;2893;1 mA
-0.457611;286.426;-0.00145966;2899;1 mA
-0.456696;286.61;-0.00145905;2905;1 mA
-0.45578;286.793;-0.00146332;2911;1 mA
-0.454865;286.976;-0.00146088;2917;1 mA
-0.453949;287.159;-0.00146027;2923;1 mA
-0.453033;287.342;-0.00146729;2929;1 mA
-0.452118;287.525;-0.00146301;2935;1 mA
-0.451202;287.708;-0.00146454;2941;1 mA
-0.450287;287.891;-0.00146088;2947;1 mA
-0.449371;288.074;-0.00145935;2953;1 mA
-0.448456;288.257;-0.0014563;2959;1 mA
-0.44754;288.441;-0.00145844;2965;1 mA
-0.446625;288.624;-0.00146088;2971;1 mA
-0.445709;288.807;-0.00145935;2977;1 mA
-0.444794;288.99;-0.00146149;2983;1 mA
-0.443878;289.173;-0.00145813;2989;1 mA
-0.442963;289.356;-0.00145752;2995;1 mA
-0.442047;289.539;-0.00145996;3001;1 mA
-0.441132;289.722;-0.00145874;3007;1 mA
-0.440216;289.905;-0.00145905;3013;1 mA
-0.439301;290.089;-0.00145721;3019;1 mA
-0.438385;290.272;-0.00145721;3025;1 mA
-0.437469;290.455;-0.00145935;3031;1 mA
-0.436554;290.638;-0.00145996;3037;1 mA
-0.435638;290.821;-0.00145569;3043;1 mA
-0.434723;291.004;-0.00145477;3049;1 mA
-0.433807;291.187;-0.00145569;3055;1 mA
-0.432892;291.37;-0.00145691;3061;1 mA
-0.431976;291.553;-0.00145721;3067;1 mA
-0.431061;291.737;-0.0014621;3073;1 mA
-0.430145;291.92;-0.00145874;3079;1 mA
-0.42923;292.103;-0.00145721;3085;1 mA
-0.428314;292.286;-0.00145874;3091;1 mA
-0.427399;292.469;-0.00145447;3097;1 mA
-0.426483;292.652;-0.0014563;3103;1 mA
-0.425568;292.835;-0.00145996;3109;1 mA
-0.424652;293.018;-0.00145691;3115;1 mA
-0.423737;293.201;-0.00145721;3121;1 mA
-0.422821;293.385;-0.00145935;3127;1 mA
-0.421906;293.568;-0.00145844;3133;1 mA
-0.42099;293.751;-0.00145752;3139;1 mA
-0.420074;293.934;-0.00145416;3145;1 mA
-0.419159;294.117;-0.00145081;3151;1 mA
-0.418243;294.3;-0.00145569;3157;1 mA
-0.417328;294.483;-0.00145508;3163;1 mA
-0.416412;294.666;-0.00145813;3169;1 mA
-0.415497;294.849;-0.0014563;3175;1 mA
-0.414581;295.032;-0.00145844;3181;1 mA
-0.413666;295.216;-0.00146332;3187;1 mA
-0.41275;295.399;-0.00145264;3193;1 mA
-0.411835;295.582;-0.00145294;3199;1 mA
-0.410919;295.765;-0.00145325;3205;1 mA
-0.410004;295.948;-0.00145538;3211;1 mA
-0.409088;296.131;-0.00145691;3217;1 mA
-0.408173;296.314;-0.00145477;3223;1 mA
-0.407257;296.497;-0.0014563;3229;1 mA
-0.406342;296.68;-0.00145721;3235;1 mA
-0.405426;296.864;-0.0014563;3241;1 mA
-0.40451;297.047;-0.00145386;3247;1 mA
-0.403595;297.23;-0.00145172;3253;1 mA
-0.402679;297.413;-0.00145386;3259;1 mA
-0.401764;297.596;-0.00145508;3265;1 mA
-0.400848;297.779;-0.00145172;3271;1 mA
-0.399933;297.962;-0.00145447;3277;1 mA
-0.399017;298.145;-0.00145569;3283;1 mA
-0.398102;298.328;-0.00145538;3289;1 mA
-0.397186;298.512;-0.00145325;3295;1 mA
-0.396271;298.695;-0.00145172;3301;1 mA
-0.395355;298.878;-0.00145294;3307;1 mA
-0.39444;299.061;-0.00145264;3313;1 mA
-0.393524;299.244;-0.0014566;3319;1 mA
-0.392609;299.427;-0.00145264;3325;1 mA
-0.391693;299.61;-0.00145813;3331;1 mA
-0.390778;299.793;-0.00145233;3337;1 mA
-0.389862;299.976;-0.00145569;3343;1 mA
-0.388947;300.16;-0.0014502;3349;1 mA
-0.388031;300.343;-0.00145111;3355;1 mA
-0.387115;300.526;-0.00145325;3361;1 mA
-0.3862;300.709;-0.0014563;3367;1 mA
-0.385284;300.892;-0.00145325;3373;1 mA
-0.384369;301.075;-0.00145447;3379;1 mA
-0.383453;301.258;-0.00145386;3385;1 mA
-0.382538;301.441;-0.00144958;3391;1 mA
-0.381622;301.624;-0.00145294;3397;1 mA
-0.380707;301.807;-0.00145508;3403;1 mA
-0.379791;301.991;-0.00145142;3409;1 mA
-0.378876;302.174;-0.00145538;3415;1 mA
-0.37796;302.357;-0.00145172;3421;1 mA
-0.377045;302.54;-0.00145203;3427;1 mA
-0.376129;302.723;-0.00144684;3433;1 mA
-0.375214;302.906;-0.0014505;3439;1 mA
-0.374298;303.089;-0.00144745;3445;1 mA
-0.373383;303.272;-0.00144867;3451;1 mA
-0.372467;303.455;-0.00145142;3457;1 mA
-0.371552;303.639;-0.00144867;3463;1 mA
-0.370636;303.822;-0.00144684;3469;1 mA
-0.36972;304.005;-0.00144653;3475;1 mA
-0.368805;304.188;-0.00144714;3481;1 mA
-0.367889;304.371;-0.00144409;3487;1 mA
-0.366974;304.554;-0.00144531;3493;1 mA
-0.366058;304.737;-0.00144867;3499;1 mA
-0.365143;304.92;-0.00144928;3505;1 mA
-0.364227;305.103;-0.00144958;3511;1 mA
-0.363312;305.287;-0.00144897;3517;1 mA
-0.362396;305.47;-0.00144745;3523;1 mA
-0.361481;305.653;-0.00144745;3529;1 mA
-0.360565;305.836;-0.00144318;3535;1 mA
-0.35965;306.019;-0.00144745;3541;1 mA
-0.358734;306.202;-0.00144867;3547;1 mA
-0.357819;306.385;-0.00144165;3553;1 mA
-0.356903;306.568;-0.00144806;3559;1 mA
-0.355988;306.751;-0.0014505;3565;1 mA
-0.355072;306.935;-0.0014447;3571;1 mA
-0.354156;307.118;-0.00144409;3577;1 mA
-0.353241;307.301;-0.00144653;3583;1 mA
-0.352325;307.484;-0.00144287;3589;1 mA
-0.35141;307.667;-0.00144531;3595;1 mA
-0.350494;307.85;-0.00144531;3601;1 mA
-0.349579;308.033;-0.00144745;3607;1 mA
-0.348663;308.216;-0.00145081;3613;1 mA
-0.347748;308.399;-0.00145142;3619;1 mA
-0.346832;308.582;-0.00144836;3625;1 mA
-0.345917;308.766;-0.00144775;3631;1 mA
-0.345001;308.949;-0.00144592;3637;1 mA
-0.344086;309.132;-0.0014444;3643;1 mA
-0.34317;309.315;-0.00144318;3649;1 mA
-0.342255;309.498;-0.00144562;3655;1 mA
-0.341339;309.681;-0.00144653;3661;1 mA
-0.340424;309.864;-0.00144318;3667;1 mA
-0.339508;310.047;-0.00144379;3673;1 mA
-0.338593;310.23;-0.00144775;3679;1 mA
-0.337677;310.414;-0.0014389;3685;1 mA
-0.336761;310.597;-0.00144135;3691;1 mA
-0.335846;310.78;-0.00144318;3697;1 mA
-0.33493;310.963;-0.00144562;3703;1 mA
-0.334015;311.146;-0.00144714;3709;1 mA
-0.333099;311.329;-0.0014447;3715;1 mA
-0.332184;311.512;-0.00144745;3721;1 mA
-0.331268;311.695;-0.00144562;3727;1 mA
-0.330353;311.878;-0.00144745;3733;1 mA
-0.329437;312.062;-0.00143768;3739;1 mA
-0.328522;312.245;-0.00143951;3745;1 mA
-0.327606;312.428;-0.00144196;3751;1 mA
-0.326691;312.611;-0.00144287;3757;1 mA
-0.325775;312.794;-0.00143646;3763;1 mA
-0.32486;312.977;-0.00144012;3769;1 mA
-0.323944;313.16;-0.00144104;3775;1 mA
-0.323029;313.343;-0.00143829;3781;1 mA
-0.322113;313.526;-0.00143738;3787;1 mA
-0.321198;313.709;-0.00144135;3793;1 mA
-0.320282;313.893;-0.00143799;3799;1 mA
-0.319366;314.076;-0.00144196;3805;1 mA
-0.318451;314.259;-0.00144287;3811;1 mA
-0.317535;314.442;-0.00144012;3817;1 mA
-0.31662;314.625;-0.0014389;3823;1 mA
-0.315704;314.808;-0.00143799;3829;1 mA
-0.314789;314.991;-0.00143372;3835;1 mA
-0.313873;315.174;-0.00143707;3841;1 mA
-0.312958;315.357;-0.00144104;3847;1 mA
-0.312042;315.541;-0.00143921;3853;1 mA
-0.311127;315.724;-0.00143951;3859;1 mA
-0.310211;315.907;-0.00143585;3865;1 mA
-0.309296;316.09;-0.00143677;3871;1 mA
-0.30838;316.273;-0.00143677;3877;1 mA
-0.307465;316.456;-0.00143616;3883;1 mA
-0.306549;316.639;-0.00143463;3889;1 mA
-0.305634;316.822;-0.00143585;3895;1 mA
-0.304718;317.005;-0.00143585;3901;1 mA
-0.303802;317.189;-0.00143402;3907;1 mA
-0.302887;317.372;-0.00143311;3913;1 mA
-0.301971;317.555;-0.00143188;3919;1 mA
-0.301056;317.738;-0.00142578;3925;1 mA
-0.30014;317.921;-0.00143311;3931;1 mA
-0.299225;318.104;-0.00143585;3937;1 mA
-0.298309;318.287;-0.00143738;3943;1 mA
-0.297394;318.47;-0.00143372;3949;1 mA
-0.296478;318.653;-0.00143677;3955;1 mA
-0.295563;318.837;-0.0014389;3961;1 mA
-0.294647;319.02;-0.00144043;3967;1 mA
-0.293732;319.203;-0.00142487;3973;1 mA
-0.292816;319.386;-0.001427;3979;1 mA
-0.291901;319.569;-0.00142731;3985;1 mA
-0.290985;319.752;-0.00143158;3991;1 mA
-0.29007;319.935;-0.00143066;3997;1 mA
-0.289154;320.118;-0.00142822;4003;1 mA
-0.288239;320.301;-0.00142761;4009;1 mA
-0.287323;320.484;-0.00142944;4015;1 mA
-0.286407;320.668;-0.00142975;4021;1 mA
-0.285492;320.851;-0.00143341;4027;1 mA
-0.284576;321.034;-0.00143158;4033;1 mA
-0.283661;321.217;-0.00142731;4039;1 mA
-0.282745;321.4;-0.00142578;4045;1 mA
-0.28183;321.583;-0.00142761;4051;1 mA
-0.280914;321.766;-0.0014267;4057;1 mA
-0.279999;321.949;-0.00142944;4063;1 mA
-0.279083;322.132;-0.00142456;4069;1 mA
-0.278168;322.316;-0.00143005;4075;1 mA
-0.277252;322.499;-0.00142487;4081;1 mA
-0.276337;322.682;-0.00142548;4087;1 mA
-0.275421;322.865;-0.00143311;4093;1 mA
-0.274506;323.048;-0.00142365;4099;1 mA
-0.27359;323.231;-0.00142853;4105;1 mA
-0.272675;323.414;-0.00142639;4111;1 mA
-0.271759;323.597;-0.00142487;4117;1 mA
-0.270844;323.78;-0.00142395;4123;1 mA
-0.269928;323.964;-0.00142578;4129;1 mA
-0.269012;324.147;-0.00142273;4135;1 mA
-0.268097;324.33;-0.00142303;4141;1 mA
-0.267181;324.513;-0.00142303;4147;1 mA
-0.266266;324.696;-0.00142273;4153;1 mA
-0.26535;324.879;-0.00142578;4159;1 mA
-0.264435;325.062;-0.00142059;4165;1 mA
-0.263519;325.245;-0.00142334;4171;1 mA
-0.262604;325.428;-0.00142242;4177;1 mA
-0.261688;325.612;-0.00142426;4183;1 mA
-0.260773;325.795;-0.00142365;4189;1 mA
-0.259857;325.978;-0.00142548;4195;1 mA
-0.258942;326.161;-0.00142029;4201;1 mA
-0.258026;326.344;-0.0014212;4207;1 mA
-0.257111;326.527;-0.00142365;4213;1 mA
-0.256195;326.71;-0.0014151;4219;1 mA
-0.25528;326.893;-0.00142029;4225;1 mA
-0.254364;327.076;-0.00141663;4231;1 mA
-0.253448;327.259;-0.00141907;4237;1 mA
-0.252533;327.443;-0.00141815;4243;1 mA
-0.251617;327.626;-0.00141998;4249;1 mA
-0.250702;327.809;-0.00141815;4255;1 mA
-0.249786;327.992;-0.00141418;4261;1 mA
-0.248871;328.175;-0.00141418;4267;1 mA
-0.247955;328.358;-0.00141418;4273;1 mA
-0.24704;328.541;-0.00141663;4279;1 mA
-0.246124;328.724;-0.00141632;4285;1 mA
-0.245209;328.907;-0.00141541;4291;1 mA
-0.244293;329.091;-0.00141541;4297;1 mA
-0.243378;329.274;-0.00141113;4303;1 mA
-0.242462;329.457;-0.0014151;4309;1 mA
-0.241547;329.64;-0.00141144;4315;1 mA
-0.240631;329.823;-0.00141052;4321;1 mA
-0.239716;330.006;-0.00140472;4327;1 mA
-0.2388;330.189;-0.00141602;4333;1 mA
-0.237885;330.372;-0.00141418;4339;1 mA
-0.236969;330.555;-0.00141693;4345;1 mA
-0.236053;330.739;-0.00141296;4351;1 mA
-0.235138;330.922;-0.00141083;4357;1 mA
-0.234222;331.105;-0.00140869;4363;1 mA
-0.233307;331.288;-0.00141174;4369;1 mA
-0.232391;331.471;-0.00141388;4375;1 mA
-0.231476;331.654;-0.0014093;4381;1 mA
-0.23056;331.837;-0.00141022;4387;1 mA
-0.229645;332.02;-0.00141602;4393;1 mA
-0.228729;332.203;-0.00141083;4399;1 mA
-0.227814;332.387;-0.00140594;4405;1 mA
-0.226898;332.57;-0.00140472;4411;1 mA
-0.225983;332.753;-0.00140991;4417;1 mA
-0.225067;332.936;-0.00140778;4423;1 mA
-0.224152;333.119;-0.00140961;4429;1 mA
-0.223236;333.302;-0.0014093;4435;1 mA
-0.222321;333.485;-0.00140717;4441;1 mA
-0.221405;333.668;-0.00139832;4447;1 mA
-0.22049;333.851;-0.00140442;4453;1 mA
-0.219574;334.034;-0.00140381;4459;1 mA
-0.218658;334.218;-0.00140747;4465;1 mA
-0.217743;334.401;-0.00139923;4471;1 mA
-0.216827;334.584;-0.00140198;4477;1 mA
-0.215912;334.767;-0.00140045;4483;1 mA
-0.214996;334.95;-0.00140656;4489;1 mA
-0.214081;335.133;-0.00139954;4495;1 mA
-0.213165;335.316;-0.00139526;4501;1 mA
-0.21225;335.499;-0.0014032;4507;1 mA
-0.211334;335.682;-0.00139862;4513;1 mA
-0.210419;335.866;-0.00140259;4519;1 mA
-0.209503;336.049;-0.00140045;4525;1 mA
-0.208588;336.232;-0.00139984;4531;1 mA
-0.207672;336.415;-0.0014035;4537;1 mA
-0.206757;336.598;-0.00139374;4543;1 mA
-0.205841;336.781;-0.00139923;4549;1 mA
-0.204926;336.964;-0.00139191;4555;1 mA
-0.20401;337.147;-0.00139465;4561;1 mA
-0.203094;337.33;-0.00139557;4567;1 mA
-0.202179;337.514;-0.00139618;4573;1 mA
-0.201263;337.697;-0.00139923;4579;1 mA
-0.200348;337.88;-0.0013974;4585;1 mA
-0.199432;338.063;-0.00138763;4591;1 mA
-0.198517;338.246;-0.00138885;4597;1 mA
-0.197601;338.429;-0.00139343;4603;1 mA
-0.196686;338.612;-0.00139313;4609;1 mA
-0.19577;338.795;-0.00139008;4615;1 mA
-0.194855;338.978;-0.00138763;4621;1 mA
-0.193939;339.162;-0.00139008;4627;1 mA
-0.193024;339.345;-0.00139099;4633;1 mA
-0.192108;339.528;-0.00138916;4639;1 mA
-0.191193;339.711;-0.00138733;4645;1 mA
-0.190277;339.894;-0.00138672;4651;1 mA
-0.189362;340.077;-0.00138672;4657;1 mA
-0.188446;340.26;-0.00138428;4663;1 mA
-0.187531;340.443;-0.00138947;4669;1 mA
-0.186615;340.626;-0.00139252;4675;1 mA
-0.185699;340.809;-0.0013855;4681;1 mA
-0.184784;340.993;-0.00138519;4687;1 mA
-0.183868;341.176;-0.00138245;4693;1 mA
-0.182953;341.359;-0.00138062;4699;1 mA
-0.182037;341.542;-0.00138428;4705;1 mA
-0.181122;341.725;-0.0013855;4711;1 mA
-0.180206;341.908;-0.00138336;4717;1 mA
-0.179291;342.091;-0.00138123;4723;1 mA
-0.178375;342.274;-0.00138153;4729;1 mA
-0.17746;342.457;-0.00137817;4735;1 mA
-0.176544;342.641;-0.00138;4741;1 mA
-0.175629;342.824;-0.00137787;4747;1 mA
-0.174713;343.007;-0.00137756;4753;1 mA
-0.173798;343.19;-0.00137268;4759;1 mA
-0.172882;343.373;-0.00137665;4765;1 mA
-0.171967;343.556;-0.00137695;4771;1 mA
-0.171051;343.739;-0.00137665;4777;1 mA
-0.170135;343.922;-0.00137421;4783;1 mA
-0.16922;344.105;-0.0013739;4789;1 mA
-0.168304;344.289;-0.0013736;4795;1 mA
-0.167389;344.472;-0.00137146;4801;1 mA
-0.166473;344.655;-0.0013736;4807;1 mA
-0.165558;344.838;-0.0013736;4813;1 mA
-0.164642;345.021;-0.00136627;4819;1 mA
-0.163727;345.204;-0.00137238;4825;1 mA
-0.162811;345.387;-0.00137604;4831;1 mA
-0.161896;345.57;-0.00137024;4837;1 mA
-0.16098;345.753;-0.0013681;4843;1 mA
-0.160065;345.937;-0.0013681;4849;1 mA
-0.159149;346.12;-0.001362;4855;1 mA
-0.158234;346.303;-0.00136475;4861;1 mA
-0.157318;346.486;-0.00136841;4867;1 mA
-0.156403;346.669;-0.00136444;4873;1 mA
-0.155487;346.852;-0.00136383;4879;1 mA
-0.154572;347.035;-0.00136475;4885;1 mA
-0.153656;347.218;-0.0013623;4891;1 mA
-0.15274;347.401;-0.00135712;4897;1 mA
-0.151825;347.584;-0.00135956;4903;1 mA
-0.150909;347.768;-0.00135559;4909;1 mA
-0.149994;347.951;-0.00135773;4915;1 mA
-0.149078;348.134;-0.00135406;4921;1 mA
-0.148163;348.317;-0.00135712;4927;1 mA
-0.147247;348.5;-0.00135315;4933;1 mA
-0.146332;348.683;-0.00135437;4939;1 mA
-0.145416;348.866;-0.00135254;4945;1 mA
-0.144501;349.049;-0.00134888;4951;1 mA
-0.143585;349.232;-0.00135101;4957;1 mA
-0.14267;349.416;-0.00135193;4963;1 mA
-0.141754;349.599;-0.00135101;4969;1 mA
-0.140839;349.782;-0.00135162;4975;1 mA
-0.139923;349.965;-0.00134705;4981;1 mA
-0.139008;350.148;-0.00134857;4987;1 mA
-0.138092;350.331;-0.00134583;4993;1 mA
-0.137177;350.514;-0.00134735;4999;1 mA
-0.136261;350.697;-0.00134369;5005;1 mA
-0.135345;350.88;-0.00134583;5011;1 mA
-0.13443;351.064;-0.00134491;5017;1 mA
-0.133514;351.247;-0.00134277;5023;1 mA
-0.132599;351.43;-0.00134308;5029;1 mA
-0.131683;351.613;-0.00134094;5035;1 mA
-0.130768;351.796;-0.00133881;5041;1 mA
-0.129852;351.979;-0.00133423;5047;1 mA
-0.128937;352.162;-0.0013382;5053;1 mA
-0.128021;352.345;-0.00133759;5059;1 mA
-0.127106;352.528;-0.00133575;5065;1 mA
-0.12619;352.712;-0.00133392;5071;1 mA
-0.125275;352.895;-0.00133301;5077;1 mA
-0.124359;353.078;-0.00133209;5083;1 mA
-0.123444;353.261;-0.00133179;5089;1 mA
-0.122528;353.444;-0.00133148;5095;1 mA
-0.121613;353.627;-0.00132843;5101;1 mA
-0.120697;353.81;-0.00133087;5107;1 mA
-0.119781;353.993;-0.0013266;5113;1 mA
-0.118866;354.176;-0.00132629;5119;1 mA
-0.11795;354.359;-0.00132874;5125;1 mA
-0.117035;354.543;-0.00132263;5131;1 mA
-0.116119;354.726;-0.00131836;5137;1 mA
-0.115204;354.909;-0.00131805;5143;1 mA
-0.114288;355.092;-0.00131531;5149;1 mA
-0.113373;355.275;-0.00131866;5155;1 mA
-0.112457;355.458;-0.00131805;5161;1 mA
-0.111542;355.641;-0.00131592;5167;1 mA
-0.110626;355.824;-0.00131592;5173;1 mA
-0.109711;356.007;-0.00131287;5179;1 mA
-0.108795;356.191;-0.00131073;5185;1 mA
-0.10788;356.374;-0.00131073;5191;1 mA
-0.106964;356.557;-0.00131012;5197;1 mA
-0.106049;356.74;-0.00131012;5203;1 mA
-0.105133;356.923;-0.0013092;5209;1 mA
-0.104218;357.106;-0.00130676;5215;1 mA
-0.103302;357.289;-0.00131226;5221;1 mA
-0.102386;357.472;-0.0013028;5227;1 mA
-0.101471;357.655;-0.00129791;5233;1 mA
-0.100555;357.839;-0.00130127;5239;1 mA
-0.0996399;358.022;-0.00129913;5245;1 mA
-0.0987244;358.205;-0.00129913;5251;1 mA
-0.0978088;358.388;-0.00129791;5257;1 mA
-0.0968933;358.571;-0.00129303;5263;1 mA
-0.0959778;358.754;-0.00129303;5269;1 mA
-0.0950623;358.937;-0.0012915;5275;1 mA
-0.0941467;359.12;-0.00128754;5281;1 mA
-0.0932312;359.303;-0.00128937;5287;1 mA
-0.0923157;359.486;-0.00128937;5293;1 mA
-0.0914001;359.67;-0.00128448;5299;1 mA
-0.0904846;359.853;-0.00128357;5305;1 mA
-0.0895691;360.036;-0.00127594;5311;1 mA
-0.0886536;360.219;-0.00127838;5317;1 mA
-0.087738;360.402;-0.0012796;5323;1 mA
-0.0868225;360.585;-0.0012793;5329;1 mA
-0.085907;360.768;-0.00127319;5335;1 mA
-0.0849915;360.951;-0.00126953;5341;1 mA
-0.0840759;361.134;-0.00126831;5347;1 mA
-0.0831604;361.318;-0.00126465;5353;1 mA
-0.0822449;361.501;-0.00126404;5359;1 mA
-0.0813293;361.684;-0.00126221;5365;1 mA
-0.0804138;361.867;-0.00126282;5371;1 mA
-0.0794983;362.05;-0.00125977;5377;1 mA
-0.0785828;362.233;-0.00125702;5383;1 mA
-0.0776672;362.416;-0.00125366;5389;1 mA
-0.0767517;362.599;-0.00124878;5395;1 mA
-0.0758362;362.782;-0.00124847;5401;1 mA
-0.0749207;362.966;-0.00124725;5407;1 mA
-0.0740051;363.149;-0.00124359;5413;1 mA
-0.0730896;363.332;-0.00123962;5419;1 mA
-0.0721741;363.515;-0.00123962;5425;1 mA
-0.0712585;363.698;-0.00123596;5431;1 mA
-0.070343;363.881;-0.00123291;5437;1 mA
-0.0694275;364.064;-0.00122711;5443;1 mA
-0.068512;364.247;-0.00122711;5449;1 mA
-0.0675964;364.43;-0.00122253;5455;1 mA
-0.0666809;364.614;-0.00121918;5461;1 mA
-0.0657654;364.797;-0.00121582;5467;1 mA
-0.0648499;364.98;-0.00121033;5473;1 mA
-0.0639343;365.163;-0.00120941;5479;1 mA
-0.0630188;365.346;-0.00120453;5485;1 mA
-0.0621033;365.529;-0.00120117;5491;1 mA
-0.0611877;365.712;-0.0011972;5497;1 mA
-0.0602722;365.895;-0.00119324;5503;1 mA
-0.0593567;366.078;-0.00118896;5509;1 mA
-0.0584412;366.261;-0.00118622;5515;1 mA
-0.0575256;366.445;-0.00118195;5521;1 mA
-0.0566101;366.628;-0.00117706;5527;1 mA
-0.0556946;366.811;-0.00117371;5533;1 mA
-0.0547791;366.994;-0.00117065;5539;1 mA
-0.0538635;367.177;-0.00116608;5545;1 mA
-0.052948;367.36;-0.00116394;5551;1 mA
-0.0520325;367.543;-0.00115326;5557;1 mA
-0.0511169;367.726;-0.00114899;5563;1 mA
-0.0502014;367.909;-0.0011441;5569;1 mA
-0.0492859;368.093;-0.00113861;5575;1 mA
-0.0483704;368.276;-0.00113281;5581;1 mA
-0.0474548;368.459;-0.00112946;5587;1 mA
-0.0465393;368.642;-0.00112427;5593;1 mA
-0.0456238;368.825;-0.00111816;5599;1 mA
-0.0447083;369.008;-0.00111389;5605;1 mA
-0.0437927;369.191;-0.00110657;5611;1 mA
-0.0428772;369.374;-0.00110107;5617;1 mA
-0.0419617;369.557;-0.00109406;5623;1 mA
-0.0410461;369.741;-0.00108826;5629;1 mA
-0.0401306;369.924;-0.00108307;5635;1 mA
-0.0392151;370.107;-0.00107635;5641;1 mA
-0.0382996;370.29;-0.00106506;5647;1 mA
-0.037384;370.473;-0.00105988;5653;1 mA
-0.0364685;370.656;-0.00105164;5659;1 mA
-0.035553;370.839;-0.00104462;5665;1 mA
-0.0346375;371.022;-0.00103699;5671;1 mA
-0.0337219;371.205;-0.00103088;5677;1 mA
-0.0328064;371.389;-0.00102173;5683;1 mA
-0.0318909;371.572;-0.00101196;5689;1 mA
-0.0309753;371.755;-0.00100281;5695;1 mA
-0.0300598;371.938;-0.000994873;5701;1 mA
-0.0291443;372.121;-0.000986633;5707;1 mA
-0.0282288;372.304;-0.000978088;5713;1 mA
-0.0273132;372.487;-0.000966797;5719;1 mA
-0.0263977;372.67;-0.000961914;5725;1 mA
-0.0254822;372.853;-0.000949402;5731;1 mA
-0.0245667;373.036;-0.000939636;5737;1 mA
-0.0236511;373.22;-0.000931091;5743;1 mA
-0.0227356;373.403;-0.0009198;5749;1 mA
-0.0218201;373.586;-0.000908813;5755;1 mA
-0.0209045;373.769;-0.000901489;5761;1 mA
-0.019989;373.952;-0.000889282;5767;1 mA
-0.0190735;374.135;-0.00087677;5773;1 mA
-0.018158;374.318;-0.000866699;5779;1 mA
-0.0172424;374.501;-0.000856628;5785;1 mA
-0.0163269;374.684;-0.000845642;5791;1 mA
-0.0154114;374.868;-0.000833435;5797;1 mA
-0.0144958;375.051;-0.000823059;5803;1 mA
-0.0135803;375.234;-0.000810547;5809;1 mA
-0.0126648;375.417;-0.000799866;5815;1 mA
-0.0117493;375.6;-0.000788269;5821;1 mA
-0.0108337;375.783;-0.000775146;5827;1 mA
-0.00991821;375.966;-0.000762939;5833;1 mA
-0.00900269;376.149;-0.000753174;5839;1 mA
-0.00808716;376.332;-0.000740051;5845;1 mA
-0.00717163;376.516;-0.000726624;5851;1 mA
-0.0062561;376.699;-0.000714722;5857;1 mA
-0.00534058;376.882;-0.000700989;5863;1 mA
-0.00442505;377.065;-0.000689697;5869;1 mA
-0.00350952;377.248;-0.000677185;5875;1 mA
-0.00259399;377.431;-0.000664368;5881;1 mA
-0.00167847;377.614;-0.000650024;5887;1 mA
-0.000762939;377.797;-0.000637817;5893;1 mA
0.000152588;377.98;-0.000625;5899;1 mA
0.00106812;378.164;-0.000613098;5905;1 mA
0.00198364;378.347;-0.00059967;5911;1 mA
0.00289917;378.53;-0.000586243;5917;1 mA
0.0038147;378.713;-0.000573425;5923;1 mA
0.00473022;378.896;-0.000560608;5929;1 mA
0.00564575;379.079;-0.000548096;5935;1 mA
0.00656128;379.262;-0.000535583;5941;1 mA
0.00747681;379.445;-0.000522461;5947;1 mA
0.00839233;379.628;-0.000509338;5953;1 mA
0.00930786;379.811;-0.000497162;5959;1 mA
0.0102234;379.995;-0.000484009;5965;1 mA
0.0111389;380.178;-0.00047168;5971;1 mA
0.0120544;380.361;-0.000459534;5977;1 mA
0.01297;380.544;-0.000447296;5983;1 mA
0.0138855;380.727;-0.000435944;5989;1 mA
0.014801;380.91;-0.000424103;5995;1 mA
0.0157166;381.093;-0.000412476;6001;1 mA
0.0166321;381.276;-0.000400177;6007;1 mA
0.0175476;381.459;-0.00038858;6013;1 mA
0.0184631;381.643;-0.000377228;6019;1 mA
0.0193787;381.826;-0.000365936;6025;1 mA
0.0202942;382.009;-0.00035498;6031;1 mA
0.0212097;382.192;-0.000344177;6037;1 mA
0.0221252;382.375;-0.000333527;6043;1 mA
0.0230408;382.558;-0.000323212;6049;1 mA
0.0239563;382.741;-0.000312653;6055;1 mA
0.0248718;382.924;-0.00030249;6061;1 mA
0.0257874;383.107;-0.00029245;6067;1 mA
0.0267029;383.291;-0.000282745;6073;1 mA
0.0276184;383.474;-0.000273132;6079;1 mA
0.0285339;383.657;-0.000263885;6085;1 mA
0.0294495;383.84;-0.000254517;6091;1 mA
0.030365;384.023;-0.000245758;6097;1 mA
0.0312805;384.206;-0.00023703;6103;1 mA
0.032196;384.389;-0.000228546;6109;1 mA
0.0331116;384.572;-0.000220093;6115;1 mA
0.0340271;384.755;-0.000211945;6121;1 mA
0.0349426;384.939;-0.000204041;6127;1 mA
0.0358582;385.122;-0.000196381;6133;1 mA
0.0367737;385.305;-0.000188965;6139;1 mA
0.0376892;385.488;-0.000181732;6145;1 mA
0.0386047;385.671;-0.000174652;6151;1 mA
0.0395203;385.854;-0.000167511;6157;1 mA
0.0404358;386.037;-0.000160797;6163;1 mA
0.0413513;386.22;-0.000154633;6169;1 mA
0.0422668;386.403;-0.000148254;6175;1 mA
0.0431824;386.586;-0.000142334;6181;1 mA
0.0440979;386.77;-0.000136414;6187;1 mA
0.0450134;386.953;-0.000130737;6193;1 mA
0.045929;387.136;-0.000125183;6199;1 mA
0.0468445;387.319;-0.000119812;6205;1 mA
0.04776;387.502;-0.00011441;6211;1 mA
0.0486755;387.685;-0.00010965;6217;1 mA
0.0495911;387.868;-0.000104492;6223;1 mA
0.0505066;388.051;-9.97925e-05;6229;1 mA
0.0514221;388.234;-9.5459e-05;6235;1 mA
0.0523376;388.418;-9.12476e-05;6241;1 mA
0.0532532;388.601;-8.6853e-05;6247;1 mA
0.0541687;388.784;-8.28552e-05;6253;1 mA
0.0550842;388.967;-7.92236e-05;6259;1 mA
0.0559998;389.15;-7.52563e-05;6265;1 mA
0.0569153;389.333;-7.15027e-05;6271;1 mA
0.0578308;389.516;-6.81763e-05;6277;1 mA
0.0587463;389.699;-6.48804e-05;6283;1 mA
0.0596619;389.882;-6.17676e-05;6289;1 mA
0.0605774;390.066;-5.86243e-05;6295;1 mA
0.0614929;390.249;-5.5603e-05;6301;1 mA
0.0624084;390.432;-5.27649e-05;6307;1 mA
0.063324;390.615;-4.99878e-05;6313;1 mA
0.0642395;390.798;-4.73633e-05;6319;1 mA
0.065155;390.981;-4.46442e-05;6325;1 mA
0.0660706;391.164;-4.22638e-05;6331;1 mA
0.0669861;391.347;-3.97919e-05;6337;1 mA
0.0679016;391.53;-3.75763e-05;6343;1 mA
0.0688171;391.714;-3.53485e-05;6349;1 mA
0.0697327;391.897;-3.34229e-05;6355;1 mA
0.0706482;392.08;-3.12683e-05;6361;1 mA
0.0715637;392.263;-2.93213e-05;6367;1 mA
0.0724792;392.446;-2.74567e-05;6373;1 mA
0.0733948;392.629;-2.57477e-05;6379;1 mA
0.0743103;392.812;-2.40601e-05;6385;1 mA
0.0752258;392.995;-2.25037e-05;6391;1 mA
0.0761414;393.178;-2.0816e-05;6397;1 mA
0.0770569;393.361;-1.93451e-05;6403;1 mA
0.0779724;393.545;-1.78986e-05;6409;1 mA
0.0788879;393.728;-1.651e-05;6415;1 mA
0.0798035;393.911;-1.51031e-05;6421;1 mA
0.080719;394.094;-1.39496e-05;6427;1 mA
0.0816345;394.277;-1.26587e-05;6433;1 mA
0.08255;394.46;-1.16821e-05;6439;1 mA
0.0834656;394.643;-1.0614e-05;6445;1 mA
0.0843811;394.826;-9.42383e-06;6451;1 mA
0.0852966;395.009;-8.41064e-06;6457;1 mA
0.0862122;395.193;-7.31201e-06;6463;1 mA
0.0871277;395.376;-6.50024e-06;6469;1 mA
0.0880432;395.559;-5.49927e-06;6475;1 mA
0.0889587;395.742;-4.58374e-06;6481;1 mA
0.0898743;395.925;-3.89099e-06;6487;1 mA
0.0907898;396.108;-3.01208e-06;6493;1 mA
0.0917053;396.291;-2.28577e-06;6499;1 mA
0.0926208;396.474;-1.45569e-06;6505;1 mA
0.0935364;396.657;-7.2937e-07;6511;1 mA
0.0944519;396.841;-2.44141e-08;6517;1 mA
0.0953674;397.024;5.82886e-07;6523;1 mA
0.096283;397.207;1.18103e-06;6529;1 mA
0.0971985;397.39;1.50146e-06;6535;1 mA
0.098114;397.573;2.10266e-06;6541;1 mA
0.0990295;397.756;2.59399e-06;6547;1 mA
0.0999451;397.939;3.22266e-06;6553;1 mA
0.100861;398.122;3.61938e-06;6559;1 mA
0.101776;398.305;4.21448e-06;6565;1 mA
0.102692;398.489;4.61121e-06;6571;1 mA
0.103607;398.672;5.08423e-06;6577;1 mA
0.104523;398.855;5.36804e-06;6583;1 mA
0.105438;399.038;5.81665e-06;6589;1 mA
0.106354;399.221;6.26526e-06;6595;1 mA
0.107269;399.404;6.77185e-06;6601;1 mA
0.108185;399.587;7.1228e-06;6607;1 mA
0.1091;399.77;7.63245e-06;6613;1 mA
0.110016;399.953;7.69958e-06;6619;1 mA
0.110931;400.136;8.1604e-06;6625;1 mA
0.111847;400.32;8.41064e-06;6631;1 mA
0.112762;400.503;8.83484e-06;6637;1 mA
0.113678;400.686;9.11865e-06;6643;1 mA
0.114594;400.869;9.3689e-06;6649;1 mA
0.115509;401.052;9.54285e-06;6655;1 mA
0.116425;401.235;9.86328e-06;6661;1 mA
0.11734;401.418;1.01501e-05;6667;1 mA
0.118256;401.601;1.04401e-05;6673;1 mA
0.119171;401.784;1.05804e-05;6679;1 mA
0.120087;401.968;1.05774e-05;6685;1 mA
0.121002;402.151;1.1084e-05;6691;1 mA
0.121918;402.334;1.11603e-05;6697;1 mA
0.122833;402.517;1.14166e-05;6703;1 mA
0.123749;402.7;1.15845e-05;6709;1 mA
0.124664;402.883;1.1792e-05;6715;1 mA
0.12558;403.066;1.20392e-05;6721;1 mA
0.126495;403.249;1.19568e-05;6727;1 mA
0.127411;403.432;1.23413e-05;6733;1 mA
0.128326;403.616;1.2616e-05;6739;1 mA
0.129242;403.799;1.28296e-05;6745;1 mA
0.130157;403.982;1.29028e-05;6751;1 mA
0.131073;404.165;1.32568e-05;6757;1 mA
0.131989;404.348;1.32385e-05;6763;1 mA
0.132904;404.531;1.32629e-05;6769;1 mA
0.13382;404.714;1.33026e-05;6775;1 mA
0.134735;404.897;1.35345e-05;6781;1 mA
0.135651;405.08;1.36108e-05;6787;1 mA
0.136566;405.263;1.39496e-05;6793;1 mA
0.137482;405.447;1.4032e-05;6799;1 mA
0.138397;405.63;1.41632e-05;6805;1 mA
0.139313;405.813;1.43188e-05;6811;1 mA
0.140228;405.996;1.44196e-05;6817;1 mA
0.141144;406.179;1.4444e-05;6823;1 mA
0.142059;406.362;1.43982e-05;6829;1 mA
0.142975;406.545;1.45294e-05;6835;1 mA
0.14389;406.728;1.48071e-05;6841;1 mA
0.144806;406.911;1.46423e-05;6847;1 mA
0.145721;407.095;1.48315e-05;6853;1 mA
0.146637;407.278;1.50116e-05;6859;1 mA
0.147552;407.461;1.49963e-05;6865;1 mA
0.148468;407.644;1.50543e-05;6871;1 mA
0.149384;407.827;1.50513e-05;6877;1 mA
0.150299;408.01;1.54358e-05;6883;1 mA
0.151215;408.193;1.53961e-05;6889;1 mA
0.15213;408.376;1.54846e-05;6895;1 mA
0.153046;408.559;1.55396e-05;6901;1 mA
0.153961;408.743;1.56006e-05;6907;1 mA
0.154877;408.926;1.58112e-05;6913;1 mA
0.155792;409.109;1.57928e-05;6919;1 mA
0.156708;409.292;1.57318e-05;6925;1 mA
0.157623;409.475;1.58875e-05;6931;1 mA
0.158539;409.658;1.60034e-05;6937;1 mA
0.159454;409.841;1.59637e-05;6943;1 mA
0.16037;410.024;1.61499e-05;6949;1 mA
0.161285;410.207;1.61621e-05;6955;1 mA
0.162201;410.391;1.60767e-05;6961;1 mA
0.163116;410.574;1.62079e-05;6967;1 mA
0.164032;410.757;1.62048e-05;6973;1 mA
0.164948;410.94;1.62262e-05;6979;1 mA
0.165863;411.123;1.62598e-05;6985;1 mA
0.166779;411.306;1.63147e-05;6991;1 mA
0.167694;411.489;1.64124e-05;6997;1 mA
0.16861;411.672;1.64215e-05;7003;1 mA
0.169525;411.855;1.6449e-05;7009;1 mA
0.170441;412.038;1.66016e-05;7015;1 mA
0.171356;412.222;1.65619e-05;7021;1 mA
0.172272;412.405;1.66077e-05;7027;1 mA
0.173187;412.588;1.67511e-05;7033;1 mA
0.174103;412.771;1.66809e-05;7039;1 mA
0.175018;412.954;1.67572e-05;7045;1 mA
0.175934;413.137;1.68579e-05;7051;1 mA
0.176849;413.32;1.69037e-05;7057;1 mA
0.177765;413.503;1.69983e-05;7063;1 mA
0.17868;413.686;1.69434e-05;7069;1 mA
0.179596;413.87;1.70013e-05;7075;1 mA
0.180511;414.053;1.72058e-05;7081;1 mA
0.181427;414.236;1.71722e-05;7087;1 mA
0.182343;414.419;1.71539e-05;7093;1 mA
0.183258;414.602;1.72272e-05;7099;1 mA
0.184174;414.785;1.73126e-05;7105;1 mA
0.185089;414.968;1.72913e-05;7111;1 mA
0.186005;415.151;1.72363e-05;7117;1 mA
0.18692;415.334;1.72882e-05;7123;1 mA
0.187836;415.518;1.7392e-05;7129;1 mA
0.188751;415.701;1.74438e-05;7135;1 mA
0.189667;415.884;1.72485e-05;7141;1 mA
0.190582;416.067;1.74316e-05;7147;1 mA
0.191498;416.25;1.74896e-05;7153;1 mA
0.192413;416.433;1.7627e-05;7159;1 mA
0.193329;416.616;1.75964e-05;7165;1 mA
0.194244;416.799;1.74927e-05;7171;1 mA
0.19516;416.982;1.76971e-05;7177;1 mA
0.196075;417.166;1.77826e-05;7183;1 mA
0.196991;417.349;1.76849e-05;7189;1 mA
0.197906;417.532;1.78314e-05;7195;1 mA
0.198822;417.715;1.79779e-05;7201;1 mA
0.199738;417.898;1.7923e-05;7207;1 mA
0.200043;417.959;1.81519e-05;7209;1 mA